time (s)	coil I (A)	last det (V)	int current (uC)
4849.539508	0.837048	441.406250	-21.289062
4849.541510	1.067827	441.406250	-21.289062
4849.543509	1.086936	441.406250	-21.289062
4849.545510	1.084372	11.928095	0.234250
4850.563547	0.459798	93.457031	293.164062
4850.565548	0.763141	93.457031	293.164062
4850.567550	0.775489	93.457031	293.164062
4850.569552	1.089810	93.457031	293.164062
4850.571551	1.086528	11.951810	0.251591
4851.613577	0.832461	436.035156	-20.996094
4851.615579	1.065910	436.035156	-20.996094
4851.617580	1.086540	436.035156	-20.996094
4851.619581	1.084005	11.924053	0.203552
4852.643632	0.432589	95.996094	284.960937
4852.645634	0.736972	95.996094	284.960937
4852.647632	1.014598	95.996094	284.960937
4852.649633	1.087451	95.996094	284.960937
4852.651632	1.084245	11.926695	0.222150
4853.688618	0.509234	442.089844	-20.605469
4853.690621	0.810939	442.089844	-20.605469
4853.692621	1.057006	442.089844	-20.605469
4853.694621	1.086942	442.089844	-20.605469
4853.696621	1.084277	11.927049	0.234505
4854.718661	0.652080	94.531250	288.671875
4854.720662	0.946460	94.531250	288.671875
4854.722662	1.088170	94.531250	288.671875
4854.724665	1.085705	11.942753	0.233738
4855.766676	0.328699	442.968750	-20.507812
4855.770679	0.932644	442.968750	-20.507812
4855.772679	1.086594	442.968750	-20.507812
4855.774678	1.085011	11.935122	0.221773
4856.799250	0.927863	97.949219	279.882812
4856.801251	1.086183	97.949219	279.882812
4856.803251	1.084865	11.933518	0.660746
4857.843280	0.786200	435.937500	-20.410156
4857.845286	1.044755	435.937500	-20.410156
4857.847287	1.087025	435.937500	-20.410156
4857.849289	1.084223	11.926456	0.221786
4858.871312	0.468946	96.386719	280.273437
4858.873316	0.772019	96.386719	280.273437
4858.875315	1.036816	96.386719	280.273437
4858.877316	1.087113	96.386719	280.273437
4858.879315	1.084176	11.925933	0.213904
4859.922301	0.904967	444.140625	-21.679687
4859.924299	1.085319	444.140625	-21.679687
4859.926298	1.086575	11.952324	0.541344
4860.948826	0.517768	91.894531	298.925781
4860.950827	0.819134	91.894531	298.925781
4860.952830	1.060145	91.894531	298.925781
4860.954828	1.085981	91.894531	298.925781
4860.956829	1.083438	11.917814	0.235759
4861.994865	0.521794	442.382812	-21.386719
4861.996866	0.822974	442.382812	-21.386719
4861.998866	1.061839	442.382812	-21.386719
4862.000867	1.086086	442.382812	-21.386719
4862.002866	1.083517	11.918682	0.218601
4863.028903	0.490779	96.093750	281.054687
4863.030906	0.793004	96.093750	281.054687
4863.032904	1.048043	96.093750	281.054687
4863.034906	1.086418	96.093750	281.054687
4863.036905	1.083651	11.920163	0.223087
4864.066958	0.448074	447.558594	-22.265625
4864.068961	0.751847	447.558594	-22.265625
4864.070960	1.024362	447.558594	-22.265625
4864.072961	1.087089	447.558594	-22.265625
4864.074961	1.084032	11.924356	0.236141
4865.103487	0.326068	93.457031	287.109375
4865.105488	0.634539	93.457031	287.109375
4865.107488	0.930225	93.457031	287.109375
4865.109487	1.087113	93.457031	287.109375
4865.111488	1.085540	11.940945	0.225603
4866.147543	0.575631	437.500000	-22.851562
4866.149546	0.874768	437.500000	-22.851562
4866.153544	1.086353	437.500000	-22.851562
4866.155551	1.083947	437.500000	-22.851562
4866.157554	1.082336	11.905691	0.378147
4867.183594	0.459260	92.480469	295.898437
4867.185597	0.762616	92.480469	295.898437
4867.187596	1.030965	92.480469	295.898437
4867.189595	1.086569	92.480469	295.898437
4867.191596	1.083628	11.919906	0.221199
4868.219625	0.655386	435.644531	-23.144531
4868.221629	0.668567	435.644531	-23.144531
4868.223628	1.087270	435.644531	-23.144531
4868.225628	1.084828	11.933111	0.231795
4869.263665	0.744057	94.531250	283.789062
4869.265666	1.019235	94.531250	283.789062
4869.267666	1.086964	94.531250	283.789062
4869.269666	1.083940	11.923345	0.230023
4870.292207	0.261329	436.914062	-22.656250
4870.294209	0.572441	436.914062	-22.656250
4870.296208	0.871737	436.914062	-22.656250
4870.298208	1.078162	436.914062	-22.656250
4870.300209	1.086008	436.914062	-22.656250
4870.302208	1.083677	11.920446	0.218800
4871.340235	0.652520	94.335937	284.863281
4871.342241	0.946795	94.335937	284.863281
4871.344241	1.087418	94.335937	284.863281
4871.346239	1.084931	11.934245	0.222773
4872.368791	0.329048	441.699219	-22.167969
4872.370791	0.637312	441.699219	-22.167969
4872.372792	0.932795	441.699219	-22.167969
4872.374791	1.087602	441.699219	-22.167969
4872.376791	1.085934	11.945278	0.221714
4873.417847	1.789903	89.550781	310.742187
4873.419850	0.862590	89.550781	310.742187
4873.423848	1.085769	89.550781	310.742187
4873.425850	1.083455	89.550781	310.742187
4873.427852	1.083371	11.917079	0.322765
4874.443897	0.403468	430.664062	-22.070312
4874.445898	0.708883	430.664062	-22.070312
4874.449897	1.088970	430.664062	-22.070312
4874.451898	1.085528	430.664062	-22.070312
4874.453898	1.083570	11.919268	0.208132
4875.493969	0.317616	95.703125	290.332031
4875.495971	0.626348	95.703125	290.332031
4875.497972	0.922493	95.703125	290.332031
4875.501969	1.084927	95.703125	290.332031
4875.503971	1.082746	11.910211	0.231848
4876.518570	0.249480	439.648437	-22.070312
4876.520572	0.561039	439.648437	-22.070312
4876.522571	0.860842	439.648437	-22.070312
4876.524572	1.075068	439.648437	-22.070312
4876.526572	1.085992	439.648437	-22.070312
4876.528572	1.083554	11.919090	0.228643
4877.570648	0.317918	89.941406	316.308594
4877.572650	0.626722	89.941406	316.308594
4877.574649	0.922787	89.941406	316.308594
4877.576649	1.085669	89.941406	316.308594
4877.578649	1.084854	11.933394	0.216924
4878.598726	0.396184	428.906250	-21.582031
4878.600727	0.701781	428.906250	-21.582031
4878.602728	0.988760	428.906250	-21.582031
4878.604729	1.088984	428.906250	-21.582031
4878.606728	1.085611	11.941715	0.209045
4879.646802	0.317822	93.066406	308.300781
4879.648803	0.626497	93.066406	308.300781
4879.650805	0.922631	93.066406	308.300781
4879.652803	1.086355	93.066406	308.300781
4879.654803	1.085455	11.940005	0.228692
4880.674846	0.702763	425.683594	-21.289062
4880.676846	0.989978	425.683594	-21.289062
4880.678846	1.091411	425.683594	-21.289062
4880.680845	1.091328	12.004603	0.211133
4881.726882	0.834392	93.945312	310.742187
4881.728885	1.066399	93.945312	310.742187
4881.730885	1.086170	93.945312	310.742187
4881.732884	1.083699	11.920687	0.212338
4882.751461	0.770200	434.765625	-21.484375
4882.753463	1.035633	434.765625	-21.484375
4882.755462	1.087076	434.765625	-21.484375
4882.757462	1.084109	11.925198	0.213358
4883.798065	0.313144	91.601562	320.898437
4883.800065	0.622165	91.601562	320.898437
4883.802070	0.918494	91.601562	320.898437
4883.804067	1.088304	91.601562	320.898437
4883.806068	1.088090	11.968986	0.222971
4884.832113	0.827377	435.742187	-20.800781
4884.834117	1.063718	435.742187	-20.800781
4884.836116	1.086273	435.742187	-20.800781
4884.838118	1.083673	11.920403	0.199046
4885.875080	0.368314	93.164062	318.457031
4885.877083	0.674956	93.164062	318.457031
4885.881083	1.087947	93.164062	318.457031
4885.883082	1.084928	93.164062	318.457031
4885.885083	1.082873	11.911602	0.224547
4886.903112	0.357959	437.597656	-20.898437
4886.905115	0.665067	437.597656	-20.898437
4886.907115	0.957868	437.597656	-20.898437
4886.909115	1.087232	437.597656	-20.898437
4886.911114	1.084450	11.928946	0.219780
4887.951146	0.270353	90.039062	330.468750
4887.953150	0.581052	90.039062	330.468750
4887.955148	0.879726	90.039062	330.468750
4887.957149	1.079825	90.039062	330.468750
4887.959149	1.080931	90.039062	330.468750
4887.961148	1.083345	11.916796	0.218165
4888.981205	0.258372	436.035156	-20.800781
4888.983208	0.569503	436.035156	-20.800781
4888.985208	0.868872	436.035156	-20.800781
4888.987208	1.076747	436.035156	-20.800781
4888.989208	1.085301	436.035156	-20.800781
4888.991208	1.082828	11.911106	0.207383
4890.027232	0.259862	95.605469	308.886719
4890.029231	0.570878	95.605469	308.886719
4890.031233	0.870108	95.605469	308.886719
4890.033233	1.077337	95.605469	308.886719
4890.035233	1.085571	95.605469	308.886719
4890.037233	1.083182	11.915006	0.226456
4891.059284	0.576544	434.667969	-20.898437
4891.061287	1.044365	434.667969	-20.898437
4891.063286	1.085880	434.667969	-20.898437
4891.065286	1.083009	11.913100	0.204174
4892.105875	0.566290	94.140625	315.722656
4892.107877	0.865820	94.140625	315.722656
4892.109875	0.879535	94.140625	315.722656
4892.111876	1.076856	94.140625	315.722656
4892.113875	1.082348	11.905833	0.220583
4893.132416	0.406061	436.425781	-20.898437
4893.134418	0.711189	436.425781	-20.898437
4893.136417	0.995871	436.425781	-20.898437
4893.138418	1.088078	436.425781	-20.898437
4893.140418	1.084765	11.932420	0.216864
4894.183022	0.559298	89.062500	336.718750
4894.185023	0.859116	89.062500	336.718750
4894.187024	1.074153	89.062500	336.718750
4894.189022	1.085374	89.062500	336.718750
4894.191023	1.082951	11.912462	0.211630
4895.213043	0.922844	427.246094	-20.703125
4895.215045	1.085753	427.246094	-20.703125
4895.217046	1.084947	11.934422	0.199138
4896.259134	0.475320	89.160156	337.792969
4896.261134	0.778015	89.160156	337.792969
4896.263135	1.039862	89.160156	337.792969
4896.265134	1.086259	89.160156	337.792969
4896.267134	1.083488	11.918373	0.213401
4897.285227	0.560779	433.886719	-20.703125
4897.287230	0.860566	433.886719	-20.703125
4897.289230	1.074676	433.886719	-20.703125
4897.291229	1.085452	433.886719	-20.703125
4897.293233	1.082983	11.912807	0.211973
4898.335794	0.314291	89.550781	333.398437
4898.339794	0.919511	89.550781	333.398437
4898.341795	1.085682	89.550781	333.398437
4898.343795	1.085088	11.935973	0.218715
4899.363818	0.539856	429.980469	-21.093750
4899.365819	0.840258	429.980469	-21.093750
4899.367819	1.067809	429.980469	-21.093750
4899.369822	1.085232	429.980469	-21.093750
4899.371821	1.082670	11.909369	0.207815
4900.413849	0.682244	93.261719	312.011719
4900.415848	0.972623	93.261719	312.011719
4900.417849	1.087975	93.261719	312.011719
4900.419850	1.084964	11.934599	0.213402
4901.438466	0.542822	429.785156	-21.386719
4901.440468	0.843154	429.785156	-21.386719
4901.442469	1.068868	429.785156	-21.386719
4901.444469	1.085229	429.785156	-21.386719
4901.446470	1.082738	11.910122	0.224513
4902.488486	0.451811	89.355469	324.804687
4902.490487	0.755317	89.355469	324.804687
4902.492489	1.026438	89.355469	324.804687
4902.494490	1.086721	89.355469	324.804687
4902.498486	1.083563	11.919188	0.214118
4903.516535	0.521162	427.441406	-22.167969
4903.518537	0.822200	427.441406	-22.167969
4903.522536	1.085234	427.441406	-22.167969
4903.524537	1.082673	427.441406	-22.167969
4903.526538	1.080854	11.889393	0.206222
4904.566592	0.897354	86.914062	332.324219
4904.568596	1.082735	86.914062	332.324219
4904.570595	1.085036	86.914062	332.324219
4904.572595	1.082775	11.910530	0.483917
4905.592667	0.517389	432.519531	-23.046875
4905.594670	0.818641	432.519531	-23.046875
4905.596669	1.059854	432.519531	-23.046875
4905.598669	1.085822	432.519531	-23.046875
4905.600669	1.083252	11.915777	0.197949
4906.640697	1.477561	88.867187	320.507812
4906.642698	0.814021	88.867187	320.507812
4906.644699	1.057609	88.867187	320.507812
4906.646698	1.085628	88.867187	320.507812
4906.648697	1.082985	11.912834	0.209165
4907.670762	0.500032	437.402344	-23.828125
4907.674762	1.051893	437.402344	-23.828125
4907.676764	1.085482	437.402344	-23.828125
4907.678763	1.082835	11.911186	0.206323
4908.713712	0.344123	90.917969	312.500000
4908.715712	0.651711	90.917969	312.500000
4908.717712	0.945898	90.917969	312.500000
4908.719714	1.087526	90.917969	312.500000
4908.721713	1.085153	11.936683	0.205608
4909.749776	0.546878	427.636719	-24.023437
4909.751779	0.847057	427.636719	-24.023437
4909.755779	1.085584	427.636719	-24.023437
4909.757780	1.083148	427.636719	-24.023437
4909.759779	1.081365	11.895012	0.248547
4910.793876	1.053330	85.351562	335.351562
4910.795878	1.085676	85.351562	335.351562
4910.797877	1.082997	11.912967	0.204681
4911.825938	0.308174	432.617187	-23.828125
4911.827939	0.617170	432.617187	-23.828125
4911.829944	0.913716	432.617187	-23.828125
4911.831944	0.922210	432.617187	-23.828125
4911.833941	1.085390	11.939288	0.199695
4912.864013	0.428036	88.183594	326.269531
4912.866014	0.732380	88.183594	326.269531
4912.868012	1.011064	88.183594	326.269531
4912.870012	1.086627	88.183594	326.269531
4912.872014	1.083474	11.918213	0.201256
4913.906076	0.605742	424.218750	-23.925781
4913.908076	0.902968	424.218750	-23.925781
4913.910076	1.083750	424.218750	-23.925781
4913.912076	1.085208	424.218750	-23.925781
4913.914076	1.082923	11.912151	0.202229
4914.940172	0.585339	90.234375	318.750000
4914.942175	0.883712	90.234375	318.750000
4914.944175	1.079625	90.234375	318.750000
4914.946174	1.084566	90.234375	318.750000
4914.948175	1.082127	11.903396	0.211963
4915.982771	0.532915	427.636719	-23.632812
4915.984773	0.833549	427.636719	-23.632812
4915.986772	1.066148	427.636719	-23.632812
4915.988772	1.086292	427.636719	-23.632812
4915.992770	1.082077	11.902846	0.198845
4917.014847	0.356296	86.230469	339.746094
4917.016848	0.663310	86.230469	339.746094
4917.018847	0.956272	86.230469	339.746094
4917.020850	1.087634	86.230469	339.746094
4917.022848	1.084902	11.933927	0.200688
4918.060893	0.675586	437.402344	-23.339844
4918.062895	0.967072	437.402344	-23.339844
4918.064896	1.088506	437.402344	-23.339844
4918.066903	1.085315	11.938463	0.196563
4919.089868	0.418405	87.988281	332.421875
4919.091867	0.723041	87.988281	332.421875
4919.093869	1.004679	87.988281	332.421875
4919.095868	1.087559	87.988281	332.421875
4919.097867	1.084385	11.928237	0.207690
4920.135894	0.572718	433.789062	-22.851562
4920.137895	0.871788	433.789062	-22.851562
4920.139895	1.077319	433.789062	-22.851562
4920.141896	1.085047	433.789062	-22.851562
4920.143895	1.082596	11.908554	0.361065
4921.166470	1.878455	85.449219	344.531250
4921.168471	0.785573	85.449219	344.531250
4921.172469	1.086078	85.449219	344.531250
4921.174477	1.083252	85.449219	344.531250
4921.176481	1.081332	11.894657	0.202524
4922.212537	0.491661	430.761719	-23.339844
4922.214539	0.793756	430.761719	-23.339844
4922.216539	1.047970	430.761719	-23.339844
4922.218538	1.085720	430.761719	-23.339844
4922.220539	1.085598	11.941584	0.199610
4923.244595	0.705834	85.058594	345.703125
4923.246597	0.991610	85.058594	345.703125
4923.248597	1.087451	85.058594	345.703125
4923.250597	1.084260	11.926855	0.202545
4924.288639	0.561583	435.839844	-23.437500
4924.290640	0.861353	435.839844	-23.437500
4924.292641	1.074489	435.839844	-23.437500
4924.294641	1.085018	435.839844	-23.437500
4924.296640	1.082553	11.908083	0.197879
4925.319213	0.471035	89.550781	328.515625
4925.321215	0.773883	89.550781	328.515625
4925.323214	1.037339	89.550781	328.515625
4925.325214	1.086054	89.550781	328.515625
4925.327214	1.083120	11.914323	0.199945
4926.366165	0.457952	426.953125	-23.242187
4926.368165	0.761232	426.953125	-23.242187
4926.370167	1.029956	426.953125	-23.242187
4926.372165	1.086332	426.953125	-23.242187
4926.374166	1.083355	11.916902	0.193729
4927.396211	0.598690	90.136719	326.464844
4927.398215	0.896262	90.136719	326.464844
4927.400214	1.082452	90.136719	326.464844
4927.402212	1.085001	90.136719	326.464844
4927.404213	1.082710	11.909812	0.483021
4928.442296	0.531161	437.890625	-23.046875
4928.444297	0.831783	437.890625	-23.046875
4928.446298	1.064663	437.890625	-23.046875
4928.448298	1.085176	437.890625	-23.046875
4928.450297	1.082594	11.908536	0.193049
4929.474311	0.811837	84.667969	348.242187
4929.476312	1.056738	84.667969	348.242187
4929.478312	1.085732	84.667969	348.242187
4929.480310	1.083142	11.914562	0.203154
4930.516328	0.278733	426.269531	-23.046875
4930.518330	0.588994	426.269531	-23.046875
4930.520331	0.887134	426.269531	-23.046875
4930.522330	1.080342	426.269531	-23.046875
4930.524331	1.084508	426.269531	-23.046875
4930.528328	1.080381	11.884192	0.198485
4931.548343	0.412236	84.472656	350.781250
4931.550344	0.717161	84.472656	350.781250
4931.552345	1.000154	84.472656	350.781250
4931.554346	1.087294	84.472656	350.781250
4931.556345	1.084123	11.925348	0.198125
4932.594349	0.646917	434.570312	-24.023437
4932.596353	0.941536	434.570312	-24.023437
4932.598352	1.087540	434.570312	-24.023437
4932.602355	1.083250	11.915750	0.194162
4933.626952	0.475554	85.644531	342.578125
4933.628955	0.778105	85.644531	342.578125
4933.630955	1.039463	85.644531	342.578125
4933.632954	1.085466	85.644531	342.578125
4933.634953	1.082629	11.908917	0.195852
4934.669001	0.416567	423.144531	-24.121094
4934.671001	0.721197	423.144531	-24.121094
4934.673000	1.003290	423.144531	-24.121094
4934.675001	1.087377	423.144531	-24.121094
4934.677001	1.084147	11.925612	0.193191
4935.703043	0.385492	85.546875	343.457031
4935.707045	0.980577	85.546875	343.457031
4935.709047	1.087046	85.546875	343.457031
4935.711047	1.083915	11.923070	0.200888
4936.743098	0.333538	419.238281	-24.609375
4936.745101	0.641414	419.238281	-24.609375
4936.747099	0.936435	419.238281	-24.609375
4936.749102	1.087136	419.238281	-24.609375
4936.751099	1.085306	11.938367	0.200293
4937.781157	0.371215	86.621094	337.109375
4937.783161	0.677581	86.621094	337.109375
4937.785160	0.968624	86.621094	337.109375
4937.787159	1.087006	86.621094	337.109375
4937.789160	1.084010	11.924115	0.196269
4938.819176	0.480622	431.640625	-24.902344
4938.821179	0.783077	431.640625	-24.902344
4938.823179	1.042621	431.640625	-24.902344
4938.825177	1.086234	431.640625	-24.902344
4938.827178	1.083410	11.917505	0.187541
4939.860137	0.565645	86.425781	337.890625
4939.862140	0.865131	86.425781	337.890625
4939.864139	1.075781	86.425781	337.890625
4939.866138	1.085358	86.425781	337.890625
4939.868137	1.082948	11.912426	0.197691
4940.894195	0.462955	426.562500	-24.707031
4940.896198	0.765962	426.562500	-24.707031
4940.898198	1.032903	426.562500	-24.707031
4940.900198	1.086535	426.562500	-24.707031
4940.902199	1.083520	11.918718	0.191273
4941.940298	0.934115	88.671875	330.175781
4941.942297	1.085578	88.671875	330.175781
4941.944298	1.083946	11.923408	0.196519
4942.966873	0.318481	418.652344	-24.414062
4942.968875	0.627009	418.652344	-24.414062
4942.970875	0.922941	418.652344	-24.414062
4942.972877	1.086714	418.652344	-24.414062
4942.974880	1.085855	11.944410	0.199087
4944.018948	1.041731	88.476562	332.128906
4944.020951	1.085683	88.476562	332.128906
4944.022951	1.082858	11.911443	0.195943
4945.043524	0.473935	422.167969	-23.730469
4945.045528	0.776558	422.167969	-23.730469
4945.047527	1.039103	422.167969	-23.730469
4945.049530	1.085999	422.167969	-23.730469
4945.051531	1.083128	11.914412	0.189409
4946.093582	0.622467	83.398437	353.906250
4946.095584	0.918735	83.398437	353.906250
4946.099584	1.085465	83.398437	353.906250
4946.101584	1.082601	11.908616	0.192078
4947.119629	0.543899	424.414062	-23.925781
4947.121631	0.844159	424.414062	-23.925781
4947.123632	1.069654	424.414062	-23.925781
4947.125631	1.085775	424.414062	-23.925781
4947.127631	1.083253	11.915785	0.219246
4948.170205	0.693272	87.792969	341.601562
4948.172206	0.982171	87.792969	341.601562
4948.174207	1.091278	87.792969	341.601562
4948.176206	1.088069	11.968755	0.197794
4949.194781	0.389995	428.515625	-23.339844
4949.196780	0.695643	428.515625	-23.339844
4949.198782	0.983547	428.515625	-23.339844
4949.200782	1.087452	428.515625	-23.339844
4949.202783	1.084321	11.927527	0.191237
4950.243747	0.290404	89.453125	337.695312
4950.245748	0.600030	89.453125	337.695312
4950.249747	1.082585	89.453125	337.695312
4950.251747	1.084933	89.453125	337.695312
4950.253747	1.082616	11.908775	0.194569
4951.272298	0.519542	429.589844	-23.437500
4951.274300	0.820600	429.589844	-23.437500
4951.276300	1.060595	429.589844	-23.437500
4951.278300	1.085769	429.589844	-23.437500
4951.280301	1.083204	11.915244	0.190469
4952.325281	1.079442	83.789062	363.769531
4952.327283	1.085117	83.789062	363.769531
4952.329282	1.082697	11.909670	0.401111
4953.347371	0.352039	425.585937	-23.535156
4953.349372	0.659239	425.585937	-23.535156
4953.351374	0.952583	425.585937	-23.535156
4953.353372	1.086913	425.585937	-23.535156
4953.357371	1.082134	11.903476	0.186351
4954.399950	0.804381	87.304687	351.367187
4954.401952	1.053249	87.304687	351.367187
4954.403951	1.085849	87.304687	351.367187
4954.405955	1.083211	11.915324	0.192761
4955.424513	0.502432	428.417969	-23.144531
4955.426514	0.804055	428.417969	-23.144531
4955.428513	1.053347	428.417969	-23.144531
4955.430514	1.086084	428.417969	-23.144531
4955.432514	1.083416	11.917576	0.182756
4956.474564	0.571869	85.839844	358.007812
4956.476567	0.870935	85.839844	358.007812
4956.478565	1.077126	85.839844	358.007812
4956.480565	1.085095	85.839844	358.007812
4956.482567	1.082681	11.909492	0.355597
4957.500623	0.256976	424.511719	-23.144531
4957.502626	0.567915	424.511719	-23.144531
4957.504627	0.867197	424.511719	-23.144531
4957.506625	1.076962	424.511719	-23.144531
4957.508626	1.086015	424.511719	-23.144531
4957.510627	1.083595	11.919542	0.182416
4958.549182	0.415462	83.300781	369.335937
4958.551185	0.720148	83.300781	369.335937
4958.553188	1.002601	83.300781	369.335937
4958.555187	1.088005	83.300781	369.335937
4958.557186	1.084806	11.932863	0.204787
4959.577258	0.490386	417.187500	-22.753906
4959.581257	1.047301	417.187500	-22.753906
4959.583259	1.085670	417.187500	-22.753906
4959.585258	1.082930	11.912231	0.181797
4960.627361	0.645699	83.105469	372.070312
4960.629362	0.940353	83.105469	372.070312
4960.631363	1.086926	83.105469	372.070312
4960.633364	1.084931	11.934236	0.692283
4961.655368	0.860058	422.656250	-23.242187
4961.657370	1.074156	422.656250	-23.242187
4961.659371	1.085225	422.656250	-23.242187
4961.661371	1.082757	11.910326	0.296793
4962.701971	0.407015	89.746094	342.968750
4962.703973	0.712006	89.746094	342.968750
4962.705973	0.996374	89.746094	342.968750
4962.707973	1.087602	89.746094	342.968750
4962.709974	1.084381	11.928192	0.194513
4963.730047	0.640932	411.718750	-23.437500
4963.732049	0.935929	411.718750	-23.437500
4963.734049	1.086622	411.718750	-23.437500
4963.736050	1.086809	11.954904	0.181560
4964.778061	1.574097	88.085937	344.433594
4964.780064	0.626431	88.085937	344.433594
4964.782064	0.922385	88.085937	344.433594
4964.784064	1.085758	88.085937	344.433594
4964.786064	1.085001	11.935017	0.191541
4965.801570	1.877033	421.972656	-24.218750
4965.806904	0.669555	421.972656	-24.218750
4965.808906	0.961771	421.972656	-24.218750
4965.810907	1.087931	421.972656	-24.218750
4965.812905	1.085128	11.936407	0.183917
4966.855451	0.430160	82.324219	366.308594
4966.857452	0.734334	82.324219	366.308594
4966.859451	1.012327	82.324219	366.308594
4966.861450	1.086595	82.324219	366.308594
4966.863452	1.083432	11.917753	0.187832
4967.881501	0.430886	423.535156	-24.511719
4967.883501	0.734935	423.535156	-24.511719
4967.885501	1.012964	423.535156	-24.511719
4967.887500	1.087118	423.535156	-24.511719
4967.889503	1.083974	11.923717	0.178925
4968.930480	0.251863	87.500000	344.628906
4968.932483	0.563025	87.500000	344.628906
4968.934483	0.862625	87.500000	344.628906
4968.936482	1.075072	87.500000	344.628906
4968.938482	1.085378	87.500000	344.628906
4968.940482	1.082986	11.912851	0.193007
4969.957044	0.413908	422.070312	-24.609375
4969.959051	0.718639	422.070312	-24.609375
4969.961048	1.001419	422.070312	-24.609375
4969.963050	1.086995	422.070312	-24.609375
4969.965049	1.083858	11.922441	0.185101
4971.007572	0.319410	82.519531	360.742187
4971.009573	0.627898	82.519531	360.742187
4971.011573	0.639132	82.519531	360.742187
4971.013573	1.088635	82.519531	360.742187
4971.015573	1.087769	11.965458	0.189379
4972.035611	0.469048	422.070312	-25.195312
4972.037609	0.771809	422.070312	-25.195312
4972.039607	1.035898	422.070312	-25.195312
4972.041608	1.085696	422.070312	-25.195312
4972.043609	1.082754	11.910299	0.177495
4973.084598	0.609487	87.011719	344.042969
4973.086630	0.906298	87.011719	344.042969
4973.088634	1.084292	87.011719	344.042969
4973.090635	1.084707	87.011719	344.042969
4973.092634	1.082460	11.907064	0.519040
4974.110660	0.377091	409.082031	-24.804687
4974.112661	0.683180	409.082031	-24.804687
4974.114662	0.973361	409.082031	-24.804687
4974.116663	1.087700	409.082031	-24.804687
4974.120660	1.082615	11.908767	0.184550
4975.158709	0.374349	87.109375	341.601562
4975.160710	0.680510	87.109375	341.601562
4975.162709	0.971123	87.109375	341.601562
4975.164710	1.088326	87.109375	341.601562
4975.166708	1.085208	11.937284	0.186767
4976.189666	0.733233	428.417969	-25.390625
4976.193668	1.086082	428.417969	-25.390625
4976.197665	1.080965	428.417969	-25.390625
4976.199666	1.079673	11.876401	0.181475
4977.233689	0.429466	82.324219	361.816406
4977.235690	0.733680	82.324219	361.816406
4977.237691	1.011896	82.324219	361.816406
4977.239689	1.015497	82.324219	361.816406
4977.241690	1.083149	11.914642	0.187062
4978.279742	0.356153	396.484375	-25.195312
4978.281742	0.663079	396.484375	-25.195312
4978.283742	0.956142	396.484375	-25.195312
4978.285744	1.087609	396.484375	-25.195312
4978.287744	1.084845	11.933297	0.144793
4979.309815	0.581855	86.914062	343.554687
4979.311818	0.880331	86.914062	343.554687
4979.313817	1.079108	86.914062	343.554687
4979.315817	1.084829	86.914062	343.554687
4979.317817	1.082440	11.906843	0.189019
4980.344350	0.391527	412.792969	-25.683594
4980.346352	0.697096	412.792969	-25.683594
4980.348352	0.984675	412.792969	-25.683594
4980.350353	1.087279	412.792969	-25.683594
4980.352350	1.084173	11.925905	0.180319
4981.382415	0.267221	81.933594	366.601562
4981.384416	0.577806	81.933594	366.601562
4981.386417	0.876522	81.933594	366.601562
4981.388415	1.078283	81.933594	366.601562
4981.390416	1.084799	81.933594	366.601562
4981.392417	1.082301	11.905310	0.195466
4982.420462	0.384488	417.382812	-25.878906
4982.422466	0.690303	417.382812	-25.878906
4982.424468	0.980100	417.382812	-25.878906
4982.426468	1.088218	417.382812	-25.878906
4982.428470	1.085031	11.935344	0.185995
4983.460507	0.645989	81.445312	371.484375
4983.462510	0.940609	81.445312	371.484375
4983.464510	1.086899	81.445312	371.484375
4983.466509	1.084893	11.933828	0.182455
4984.498577	0.449134	420.312500	-25.781250
4984.500580	0.752628	420.312500	-25.781250
4984.502578	1.024585	420.312500	-25.781250
4984.504579	1.086557	420.312500	-25.781250
4984.506579	1.083505	11.918559	0.180941
4985.534642	0.493427	80.371094	376.855469
4985.536643	0.795364	80.371094	376.855469
4985.538644	1.049067	80.371094	376.855469
4985.540642	1.086165	80.371094	376.855469
4985.542642	1.083481	11.918293	0.185676
4986.576690	0.512359	419.433594	-25.195312
4986.578694	0.813620	419.433594	-25.195312
4986.582695	1.085597	419.433594	-25.195312
4986.584696	1.082961	419.433594	-25.195312
4986.586695	1.081150	11.892654	0.178681
4987.608734	0.329376	81.445312	373.535156
4987.610737	0.637329	81.445312	373.535156
4987.612736	0.932566	81.445312	373.535156
4987.614738	1.086823	81.445312	373.535156
4987.616737	1.085211	11.937320	0.189369
4988.652783	0.499461	415.429687	-25.195312
4988.654785	0.801168	415.429687	-25.195312
4988.656785	1.051313	415.429687	-25.195312
4988.658784	1.085075	415.429687	-25.195312
4988.660785	1.082302	11.905319	0.182313
4989.684859	0.404223	87.011719	350.292969
4989.686860	0.709313	87.011719	350.292969
4989.688861	0.994336	87.011719	350.292969
4989.690860	1.087450	87.011719	350.292969
4989.692862	1.084243	11.926676	0.179708
4990.730883	0.560767	417.089844	-25.292969
4990.732887	0.860447	417.089844	-25.292969
4990.734886	1.074179	417.089844	-25.292969
4990.736885	1.085083	417.089844	-25.292969
4990.738891	1.082590	11.908491	0.294835
4991.762888	0.765785	80.468750	381.054687
4991.764888	1.032701	80.468750	381.054687
4991.766892	1.086412	80.468750	381.054687
4991.768893	1.083426	11.917690	0.178474
4992.806955	0.470222	420.605469	-24.707031
4992.808956	0.772923	420.605469	-24.707031
4992.812955	1.085843	420.605469	-24.707031
4992.816956	1.080935	420.605469	-24.707031
4992.818956	1.079691	11.876606	0.175442
4993.837022	0.537180	86.621094	354.785156
4993.839024	0.837604	86.621094	354.785156
4993.841023	1.066619	86.621094	354.785156
4993.843023	1.084871	86.621094	354.785156
4993.845022	1.082278	11.905062	0.180366
4994.883094	0.544742	420.800781	-24.902344
4994.885096	0.844908	420.800781	-24.902344
4994.887097	1.069414	420.800781	-24.902344
4994.889096	1.085142	420.800781	-24.902344
4994.891095	1.082644	11.909085	0.217946
4995.913177	0.537359	85.546875	358.300781
4995.915179	0.837722	85.546875	358.300781
4995.917179	1.067385	85.546875	358.300781
4995.919179	1.085787	85.546875	358.300781
4995.921181	1.083267	11.915936	0.183329
4996.959705	0.615272	423.046875	-25.488281
4996.961710	0.911901	423.046875	-25.488281
4996.963708	1.084009	423.046875	-25.488281
4996.965708	1.084221	11.926429	0.179631
4997.989787	0.448222	83.984375	364.941406
4997.991789	0.751653	83.984375	364.941406
4997.993790	1.023722	83.984375	364.941406
4997.995789	1.085719	83.984375	364.941406
4997.997789	1.082639	11.909031	0.184009
4999.034332	0.537546	425.292969	-25.488281
4999.036335	0.837821	425.292969	-25.488281
4999.038335	1.067357	425.292969	-25.488281
4999.040334	1.085751	425.292969	-25.488281
4999.042334	1.083314	11.916450	0.183151
5000.066885	0.514034	82.226562	372.656250
5000.068887	0.815181	82.226562	372.656250
5000.070888	1.057810	82.226562	372.656250
5000.072888	1.085157	82.226562	372.656250
5000.074888	1.082511	11.907623	0.175230
5001.110947	0.289703	427.734375	-25.390625
5001.112948	0.599270	427.734375	-25.390625
5001.114947	0.896781	427.734375	-25.390625
5001.116948	1.081961	427.734375	-25.390625
5001.118947	1.084462	427.734375	-25.390625
5001.120948	1.082032	11.902350	0.174275
5002.143000	0.428845	82.031250	373.242187
5002.147002	1.011469	82.031250	373.242187
5002.149001	1.086400	82.031250	373.242187
5002.153000	1.081402	11.895420	0.177654
5003.187078	0.602503	425.585937	-25.683594
5003.189079	0.899792	425.585937	-25.683594
5003.191080	1.083913	425.585937	-25.683594
5003.193079	1.085943	425.585937	-25.683594
5003.195080	1.083637	11.920012	0.475720
5004.222108	0.797259	79.199219	383.886719
5004.224108	1.049634	79.199219	383.886719
5004.226108	1.085473	79.199219	383.886719
5004.228108	1.082775	11.910530	0.175822
5005.262186	0.520530	414.453125	-26.171875
5005.264189	0.821453	414.453125	-26.171875
5005.266190	1.060471	414.453125	-26.171875
5005.268189	1.085106	414.453125	-26.171875
5005.270190	1.082538	11.907915	0.174897
5006.296228	0.248576	80.664062	377.050781
5006.298230	0.559945	80.664062	377.050781
5006.300230	0.859573	80.664062	377.050781
5006.302230	1.073719	80.664062	377.050781
5006.304231	1.084844	80.664062	377.050781
5006.306230	1.082348	11.905824	0.183818
5007.336236	0.269812	408.789062	-26.074219
5007.338238	0.580309	408.789062	-26.074219
5007.342236	1.078677	408.789062	-26.074219
5007.344237	1.084554	408.789062	-26.074219
5007.346238	1.082076	11.902837	0.177212
5008.374309	0.468830	80.957031	376.464844
5008.376311	0.771658	80.957031	376.464844
5008.378309	1.035778	80.957031	376.464844
5008.380309	1.085499	80.957031	376.464844
5008.382310	1.082561	11.908173	0.177292
5009.410376	0.357123	413.574219	-26.269531
5009.412378	0.664038	413.574219	-26.269531
5009.414378	0.956855	413.574219	-26.269531
5009.416379	1.086815	413.574219	-26.269531
5009.418379	1.084106	11.925171	0.179821
5010.452380	0.528416	85.546875	359.082031
5010.454381	0.829073	85.546875	359.082031
5010.456380	1.063732	85.546875	359.082031
5010.458378	1.085454	85.546875	359.082031
5010.460379	1.082866	11.911530	0.174280
5011.487349	0.483125	412.792969	-26.171875
5011.489351	0.785356	412.792969	-26.171875
5011.491351	1.043687	412.792969	-26.171875
5011.493352	1.085856	412.792969	-26.171875
5011.495352	1.083107	11.914181	0.169833
5012.529453	0.353969	82.519531	371.093750
5012.531457	0.661012	82.519531	371.093750
5012.533457	0.954141	82.519531	371.093750
5012.535457	1.087004	82.519531	371.093750
5012.537456	1.084376	11.928130	0.176961
5013.561476	0.407005	411.328125	-25.976562
5013.563477	0.711948	411.328125	-25.976562
5013.565477	0.996321	411.328125	-25.976562
5013.567478	1.087791	411.328125	-25.976562
5013.569478	1.084516	11.929672	0.175042
5014.607522	0.412190	83.496094	366.601562
5014.609524	0.716863	83.496094	366.601562
5014.611525	0.999847	83.496094	366.601562
5014.613524	1.086598	83.496094	366.601562
5014.615525	1.083372	11.917097	0.172647
5015.637534	0.470769	416.406250	-25.781250
5015.639537	0.773360	416.406250	-25.781250
5015.641535	1.036763	416.406250	-25.781250
5015.643539	1.085641	416.406250	-25.781250
5015.645540	1.082754	11.910299	0.172609
5016.686120	0.781662	80.468750	378.906250
5016.688122	1.041644	80.468750	378.906250
5016.690122	1.085753	80.468750	378.906250
5016.692122	1.082928	11.912205	0.177111
5017.712182	0.393422	409.472656	-25.390625
5017.714185	0.698811	409.472656	-25.390625
5017.716185	0.986218	409.472656	-25.390625
5017.718185	1.088217	409.472656	-25.390625
5017.722184	1.082995	11.912950	0.170740
5018.760215	0.306785	82.812500	371.679687
5018.762217	0.615647	82.812500	371.679687
5018.764219	0.912153	82.812500	371.679687
5018.766217	1.084740	82.812500	371.679687
5018.768217	1.084944	11.934387	0.178885
5019.788259	0.457844	417.285156	-25.195312
5019.790262	0.760802	417.285156	-25.195312
5019.792261	1.029335	417.285156	-25.195312
5019.794262	1.085582	417.285156	-25.195312
5019.796262	1.082607	11.908677	0.175171
5020.836839	0.381123	87.109375	359.960937
5020.838838	0.394630	87.109375	359.960937
5020.840840	0.976553	87.109375	359.960937
5020.842839	1.088035	87.109375	359.960937
5020.844844	1.084908	11.933989	0.177727
5021.864917	0.692114	419.824219	-25.000000
5021.866918	0.980598	419.824219	-25.000000
5021.868918	1.087487	419.824219	-25.000000
5021.870917	1.084329	11.927616	0.170379
5022.913487	0.457733	81.738281	380.078125
5022.915489	0.760915	81.738281	380.078125
5022.917488	1.029366	81.738281	380.078125
5022.919490	1.085563	81.738281	380.078125
5022.923487	1.080640	11.887035	0.177197
5023.941561	0.610179	417.480469	-25.097656
5023.943580	0.907033	417.480469	-25.097656
5023.945585	1.084464	417.480469	-25.097656
5023.949583	1.082666	417.480469	-25.097656
5023.951585	1.081066	11.891724	0.169066
5024.988208	0.472764	82.812500	378.808594
5024.990211	0.775374	82.812500	378.808594
5024.992213	1.038008	82.812500	378.808594
5024.994210	1.085575	82.812500	378.808594
5024.996208	1.082643	11.909068	0.179082
5026.016239	0.384100	408.203125	-24.707031
5026.018244	0.689847	408.203125	-24.707031
5026.020243	0.979388	408.203125	-24.707031
5026.022244	1.087620	408.203125	-24.707031
5026.024244	1.084414	11.928555	0.169591
5027.066341	0.771117	83.984375	378.222656
5027.068342	1.035419	83.984375	378.222656
5027.070343	1.085320	83.984375	378.222656
5027.072345	1.082413	11.906541	0.174214
5028.096336	0.900029	421.875000	-24.316406
5028.098338	1.082495	421.875000	-24.316406
5028.100337	1.084397	421.875000	-24.316406
5028.102338	1.081974	11.901711	0.167637
5029.142368	0.439936	80.078125	393.945312
5029.146367	1.018597	80.078125	393.945312
5029.148370	1.086154	80.078125	393.945312
5029.150368	1.082988	11.912869	0.178722
5030.168402	0.359255	409.570312	-24.218750
5030.170404	0.665997	409.570312	-24.218750
5030.172406	0.958535	409.570312	-24.218750
5030.174404	1.087334	409.570312	-24.218750
5030.176405	1.084613	11.930745	0.169969
5031.218456	0.506573	86.718750	368.945312
5031.220458	0.807910	86.718750	368.945312
5031.222456	1.054415	86.718750	368.945312
5031.224457	1.084938	86.718750	368.945312
5031.226457	1.082245	11.904690	0.178106
5032.245404	0.488385	401.953125	-24.023437
5032.247407	0.790442	401.953125	-24.023437
5032.249406	1.046111	401.953125	-24.023437
5032.251408	1.085467	401.953125	-24.023437
5032.253407	1.082711	11.909821	0.172092
5033.295448	0.788502	79.394531	395.703125
5033.297451	1.045214	79.394531	395.703125
5033.299448	1.085579	79.394531	395.703125
5033.301450	1.082862	11.911478	0.178019
5034.321519	0.483236	400.292969	-24.316406
5034.323521	0.785443	400.292969	-24.316406
5034.325522	1.043596	400.292969	-24.316406
5034.327523	1.085731	400.292969	-24.316406
5034.329522	1.082912	11.912027	0.168526
5035.369565	0.320490	80.664062	390.234375
5035.371568	0.628820	80.664062	390.234375
5035.373568	0.924495	80.664062	390.234375
5035.375567	1.085362	80.664062	390.234375
5035.377567	1.084353	11.927883	0.179284
5036.399627	0.701071	399.609375	-24.609375
5036.401630	0.987834	399.609375	-24.609375
5036.403630	1.087431	399.609375	-24.609375
5036.405630	1.084288	11.927174	0.164354
5037.445664	0.311401	83.886719	374.902344
5037.447666	0.620018	83.886719	374.902344
5037.449666	0.916284	83.886719	374.902344
5037.451666	1.084670	83.886719	374.902344
5037.453667	1.084400	11.928405	0.175884
5038.474243	0.544395	416.601562	-25.292969
5038.476244	0.844445	416.601562	-25.292969
5038.478244	1.068858	416.601562	-25.292969
5038.480244	1.084731	416.601562	-25.292969
5038.482244	1.082178	11.903954	0.170735
5039.524790	0.765169	78.613281	393.457031
5039.526792	1.031943	78.613281	393.457031
5039.528792	1.085572	78.613281	393.457031
5039.530792	1.082643	11.909068	0.169919
5040.550814	0.527153	406.640625	-25.488281
5040.552815	0.540848	406.640625	-25.488281
5040.558812	1.082875	406.640625	-25.488281
5040.560815	1.081154	406.640625	-25.488281
5040.562813	1.079901	11.878909	0.163510
5041.598853	0.524555	84.960937	367.578125
5041.600854	0.825285	84.960937	367.578125
5041.602855	1.062067	84.960937	367.578125
5041.604854	1.085096	84.960937	367.578125
5041.606854	1.082518	11.907694	0.171489
5042.626877	0.591191	397.851562	-25.585937
5042.628877	0.889061	397.851562	-25.585937
5042.630878	1.080854	397.851562	-25.585937
5042.632878	1.084645	397.851562	-25.585937
5042.634877	1.082251	11.904760	0.169557
5043.674974	0.518508	84.472656	366.796875
5043.676976	0.819411	84.472656	366.796875
5043.678976	1.060546	84.472656	366.796875
5043.680977	1.086666	84.472656	366.796875
5043.682975	1.084144	11.925587	0.175995
5044.703914	0.634340	399.414062	-25.878906
5044.707913	1.075992	399.414062	-25.878906
5044.709914	1.084699	399.414062	-25.878906
5044.711914	1.082204	11.904246	0.170556
5045.749921	0.412089	79.492187	387.695312
5045.751927	0.716744	79.492187	387.695312
5045.753927	1.000101	79.492187	387.695312
5045.755927	1.086796	79.492187	387.695312
5045.757927	1.083600	11.919597	0.173451
5046.779957	0.472386	401.562500	-25.976562
5046.781958	0.774859	401.562500	-25.976562
5046.787957	1.082355	401.562500	-25.976562
5046.789958	1.080553	401.562500	-25.976562
5046.791958	1.079265	11.871916	0.165921
5047.826048	0.485566	82.128906	375.683594
5047.828050	0.787627	82.128906	375.683594
5047.830049	1.044469	82.128906	375.683594
5047.832050	1.085172	82.128906	375.683594
5047.834050	1.082348	11.905824	0.168912
5048.860112	0.842802	416.406250	-26.855469
5048.862114	1.068439	416.406250	-26.855469
5048.864115	1.084786	416.406250	-26.855469
5048.866112	1.082257	11.904831	0.187274
5049.900705	0.490452	84.765625	368.359375
5049.902707	0.792395	84.765625	368.359375
5049.904706	1.046955	84.765625	368.359375
5049.906708	1.085244	84.765625	368.359375
5049.908707	1.082501	11.907508	0.167747
5050.934756	0.301713	405.566406	-26.660156
5050.936757	0.610795	405.566406	-26.660156
5050.938767	0.907547	405.566406	-26.660156
5050.940767	1.083482	405.566406	-26.660156
5050.942769	1.084014	11.924150	0.167448
5051.974834	0.333402	81.738281	381.152344
5051.976835	0.641091	81.738281	381.152344
5051.978834	0.936022	81.738281	381.152344
5051.980835	1.086788	81.738281	381.152344
5051.982834	1.084959	11.934546	0.168673
5053.012889	0.527591	402.343750	-26.269531
5053.014889	0.828312	402.343750	-26.269531
5053.016889	1.063008	402.343750	-26.269531
5053.018891	1.084768	402.343750	-26.269531
5053.020889	1.082147	11.903617	0.163117
5054.050934	0.480960	80.566406	387.792969
5054.052936	0.783230	80.566406	387.792969
5054.054936	1.042398	80.566406	387.792969
5054.056936	1.085684	80.566406	387.792969
5054.058937	1.082832	11.911150	0.167301
5055.090941	0.578657	409.082031	-26.562500
5055.092942	0.877139	409.082031	-26.562500
5055.094943	1.078093	409.082031	-26.562500
5055.096943	1.084546	409.082031	-26.562500
5055.098943	1.082006	11.902065	0.365935
5056.126947	0.615795	78.613281	396.289062
5056.128949	0.912312	78.613281	396.289062
5056.130951	1.083968	78.613281	396.289062
5056.132950	1.084158	11.925737	0.542807
5057.167016	0.411470	412.500000	-25.976562
5057.169020	0.424872	412.500000	-25.976562
5057.171020	0.999285	412.500000	-25.976562
5057.173022	1.086525	412.500000	-25.976562
5057.175025	1.083351	11.916857	0.165323
5058.201064	0.460556	79.296875	394.824219
5058.203064	0.763577	79.296875	394.824219
5058.205065	1.030984	79.296875	394.824219
5058.207066	1.085478	79.296875	394.824219
5058.209066	1.082501	11.907508	0.169139
5059.243142	0.405951	409.570312	-25.781250
5059.245143	0.710924	409.570312	-25.781250
5059.247144	0.995511	409.570312	-25.781250
5059.249144	1.087515	409.570312	-25.781250
5059.251144	1.084278	11.927058	0.164500
5060.277183	0.452742	78.320312	399.707031
5060.279187	0.755964	78.320312	399.707031
5060.281186	1.026480	78.320312	399.707031
5060.283185	1.085978	78.320312	399.707031
5060.285185	1.083004	11.913047	0.163613
5061.321208	0.617828	400.097656	-25.585937
5061.323208	0.914189	400.097656	-25.585937
5061.325209	1.084634	400.097656	-25.585937
5061.327207	1.084610	11.930710	0.550400
5062.355290	0.895848	77.539062	401.367187
5062.357287	1.081469	77.539062	401.367187
5062.359289	1.083997	77.539062	401.367187
5062.363288	1.079965	11.879610	0.448259
5063.397314	0.610206	399.316406	-25.781250
5063.399342	0.907054	399.316406	-25.781250
5063.401341	1.085039	399.316406	-25.781250
5063.403341	1.085416	399.316406	-25.781250
5063.405342	1.083258	11.915838	0.167376
5064.429411	0.597157	83.300781	377.929687
5064.431413	0.894693	83.300781	377.929687
5064.435411	1.084103	83.300781	377.929687
5064.437411	1.081719	83.300781	377.929687
5064.439411	1.080131	11.881444	0.168847
5065.474025	0.695184	399.023437	-26.171875
5065.478027	1.086714	399.023437	-26.171875
5065.480027	1.083604	399.023437	-26.171875
5065.482029	1.081484	11.896323	0.165200
5066.504018	0.357785	78.222656	396.972656
5066.508017	0.957027	78.222656	396.972656
5066.510019	1.086109	78.222656	396.972656
5066.512018	1.083463	11.918090	0.170380
5067.548082	0.452777	419.628906	-26.367187
5067.550082	0.756006	419.628906	-26.367187
5067.552083	1.026607	419.628906	-26.367187
5067.554080	1.086297	419.628906	-26.367187
5067.556082	1.086188	11.948071	0.167743
5068.580661	0.433684	84.765625	372.460937
5068.582662	0.737667	84.765625	372.460937
5068.584664	1.014341	84.765625	372.460937
5068.586663	1.085822	84.765625	372.460937
5068.588663	1.082655	11.909210	0.169734
5069.624711	0.366429	409.667969	-26.074219
5069.626714	0.672733	409.667969	-26.074219
5069.628713	0.964341	409.667969	-26.074219
5069.630713	1.087069	409.667969	-26.074219
5069.632715	1.084236	11.926598	0.164413
5070.660784	0.799477	83.886719	377.441406
5070.662787	1.050641	83.886719	377.441406
5070.664787	1.085452	83.886719	377.441406
5070.666786	1.082676	11.909439	0.165816
5071.699819	0.441410	402.246094	-25.683594
5071.701821	0.745106	402.246094	-25.683594
5071.703820	1.019352	402.246094	-25.683594
5071.705821	1.085855	402.246094	-25.683594
5071.707821	1.082760	11.910361	0.158101
5072.735860	0.638888	83.886719	379.492187
5072.737863	0.933988	83.886719	379.492187
5072.739862	1.085661	83.886719	379.492187
5072.741862	1.084015	11.924160	0.166708
5073.774415	0.516422	404.003906	-25.878906
5073.776417	0.817439	404.003906	-25.878906
5073.778418	0.825736	404.003906	-25.878906
5073.782415	1.082382	404.003906	-25.878906
5073.784419	1.080574	11.886318	0.168573
5074.812466	0.706298	78.125000	398.925781
5074.814468	0.991725	78.125000	398.925781
5074.816466	1.086847	78.125000	398.925781
5074.818469	1.083743	11.921174	0.165762
5075.850507	0.347831	406.640625	-26.464844
5075.852509	0.655002	406.640625	-26.464844
5075.854507	0.948686	406.640625	-26.464844
5075.856509	1.087563	406.640625	-26.464844
5075.860506	1.083073	11.913800	0.163751
5076.892537	0.903104	78.222656	399.511719
5076.894534	1.083903	78.222656	399.511719
5076.896534	1.085358	78.222656	399.511719
5076.898532	1.083100	11.914101	0.160591
5077.926553	0.566086	415.136719	-26.562500
5077.928554	0.865335	415.136719	-26.562500
5077.930555	1.075093	415.136719	-26.562500
5077.932554	1.084517	415.136719	-26.562500
5077.936552	1.080338	11.883722	0.171721
5078.965514	0.427785	79.785156	393.359375
5078.969514	1.010482	79.785156	393.359375
5078.971516	1.086014	79.785156	393.359375
5078.973515	1.082856	11.911417	0.164250
5079.999538	0.229170	400.878906	-26.269531
5080.005538	1.068200	400.878906	-26.269531
5080.007539	1.084724	400.878906	-26.269531
5080.009542	1.082032	11.902350	0.165863
5081.043625	0.568564	81.152344	389.257812
5081.045626	0.867647	81.152344	389.257812
5081.047627	1.075639	81.152344	389.257812
5081.049628	1.084323	81.152344	389.257812
5081.051626	1.081792	11.899710	0.311395
5082.075662	0.307147	402.929687	-25.878906
5082.077663	0.616022	402.929687	-25.878906
5082.079671	0.912411	402.929687	-25.878906
5082.081672	1.084554	402.929687	-25.878906
5082.085670	1.082337	11.905708	0.162066
5083.121747	0.554257	83.593750	378.808594
5083.123749	0.853922	83.593750	378.808594
5083.125751	1.071819	83.593750	378.808594
5083.127748	1.084478	83.593750	378.808594
5083.131746	1.080172	11.881887	0.161969
5084.150301	0.389354	403.125000	-25.585937
5084.154302	0.982641	403.125000	-25.585937
5084.156303	1.086813	403.125000	-25.585937
5084.158302	1.083625	11.919880	0.160826
5085.198389	0.470252	83.593750	380.566406
5085.200390	0.772854	83.593750	380.566406
5085.204388	1.085450	83.593750	380.566406
5085.206389	1.082476	83.593750	380.566406
5085.208391	1.080615	11.886762	0.164392
5086.229008	0.774727	406.250000	-25.195312
5086.231009	1.037605	406.250000	-25.195312
5086.233008	1.085578	406.250000	-25.195312
5086.235009	1.082671	11.909378	0.160020
5087.273615	0.485670	79.101562	400.195312
5087.275617	0.787767	79.101562	400.195312
5087.277617	1.044639	79.101562	400.195312
5087.279616	1.085496	79.101562	400.195312
5087.281618	1.082739	11.910131	0.163210
5088.303680	0.629571	411.132812	-25.097656
5088.305682	0.925270	411.132812	-25.097656
5088.307686	1.086142	411.132812	-25.097656
5088.309689	1.085092	11.936008	0.597765
5089.350639	0.539539	84.667969	379.882812
5089.352642	0.839733	84.667969	379.882812
5089.354641	1.067299	84.667969	379.882812
5089.356643	1.084696	84.667969	379.882812
5089.358643	1.082082	11.902900	0.177646
5090.378658	0.527856	410.449219	-24.804687
5090.380660	0.828544	410.449219	-24.804687
5090.382660	1.064153	410.449219	-24.804687
5090.384660	1.086352	410.449219	-24.804687
5090.386660	1.083807	11.921883	0.152648
5091.427597	0.660242	79.101562	402.441406
5091.429600	0.953445	79.101562	402.441406
5091.431600	1.086603	79.101562	402.441406
5091.433601	1.084192	11.926109	0.167808
5092.455672	0.929166	389.257812	-24.414062
5092.457673	1.012760	389.257812	-24.414062
5092.459672	1.086109	389.257812	-24.414062
5092.461671	1.083009	11.913100	0.156681
5093.503751	0.660578	78.125000	405.468750
5093.505754	0.953706	78.125000	405.468750
5093.509751	1.084595	78.125000	405.468750
5093.511753	1.082543	11.907968	0.169043
5094.529809	0.426397	411.035156	-24.707031
5094.531812	0.730524	411.035156	-24.707031
5094.533812	1.009432	411.035156	-24.707031
5094.537810	1.082737	411.035156	-24.707031
5094.539811	1.080788	11.888667	0.160472
5095.580787	0.637294	78.417969	405.078125
5095.582789	0.932424	78.417969	405.078125
5095.584790	1.085756	78.417969	405.078125
5095.588788	1.084185	11.926030	0.164736
5096.606854	0.562047	390.039062	-24.707031
5096.608856	0.584151	390.039062	-24.707031
5096.610855	1.073595	390.039062	-24.707031
5096.612855	1.083966	390.039062	-24.707031
5096.614856	1.081344	11.894781	0.160319
5097.658896	1.042588	81.738281	392.187500
5097.660896	1.085452	81.738281	392.187500
5097.662896	1.082592	11.908509	0.166483
5098.681479	0.327259	396.191406	-25.195312
5098.683481	0.635120	396.191406	-25.195312
5098.685481	0.930456	396.191406	-25.195312
5098.687481	1.086056	396.191406	-25.195312
5098.689481	1.084612	11.930727	0.158096
5099.731610	0.487530	77.832031	406.835937
5099.733614	0.789573	77.832031	406.835937
5099.737610	1.085594	77.832031	406.835937
5099.739611	1.082755	77.832031	406.835937
5099.741613	1.080926	11.890190	0.166481
5100.757664	0.329720	391.406250	-24.902344
5100.759666	0.637697	391.406250	-24.902344
5100.761664	0.932853	391.406250	-24.902344
5100.763665	1.086999	391.406250	-24.902344
5100.765667	1.085404	11.939447	0.155644
5101.807724	0.481091	80.566406	396.777344
5101.809725	0.783310	80.566406	396.777344
5101.811721	1.042027	80.566406	396.777344
5101.813722	1.084860	80.566406	396.777344
5101.815725	1.081949	11.901438	0.162463
5102.833762	0.321253	393.554687	-25.000000
5102.835766	0.629361	393.554687	-25.000000
5102.837765	0.925046	393.554687	-25.000000
5102.839765	0.931688	393.554687	-25.000000
5102.841765	1.083567	11.919232	0.158360
5103.883818	0.470551	79.882812	399.316406
5103.885821	0.773222	79.882812	399.316406
5103.887826	1.036527	79.882812	399.316406
5103.889823	1.085254	79.882812	399.316406
5103.891824	1.082325	11.905576	0.162992
5104.911887	0.623818	409.375000	-25.390625
5104.913889	0.919786	409.375000	-25.390625
5104.915892	1.085271	409.375000	-25.390625
5104.917890	1.084715	11.931861	0.569524
5105.960840	0.603865	84.277344	383.300781
5105.962842	0.900934	84.277344	383.300781
5105.964842	1.082398	84.277344	383.300781
5105.966844	1.084193	84.277344	383.300781
5105.970840	1.080186	11.882046	0.163229
5106.985762	0.431653	404.199219	-25.488281
5106.987762	0.735553	404.199219	-25.488281
5106.989762	1.012836	404.199219	-25.488281
5106.991763	1.085809	404.199219	-25.488281
5106.993762	1.082667	11.909342	0.160607
5108.035804	0.497048	82.812500	386.230469
5108.037809	0.798712	82.812500	386.230469
5108.039809	1.049954	82.812500	386.230469
5108.041808	1.084869	82.812500	386.230469
5108.043806	1.082096	11.903050	0.161671
5109.062779	0.482453	407.031250	-25.976562
5109.064781	0.784581	407.031250	-25.976562
5109.066781	1.042810	407.031250	-25.976562
5109.068780	1.084946	407.031250	-25.976562
5109.074780	1.078987	11.868859	0.154664
5110.113759	0.916495	81.835937	389.550781
5110.115760	1.083808	81.835937	389.550781
5110.117761	1.083488	11.918364	0.560824
5111.140344	0.693459	388.574219	-25.683594
5111.144345	1.087647	388.574219	-25.683594
5111.146347	1.084458	388.574219	-25.683594
5111.148347	1.082441	11.906852	0.155574
5112.188393	0.615063	81.445312	389.453125
5112.190399	0.911525	81.445312	389.453125
5112.192398	1.083932	81.445312	389.453125
5112.194397	1.084178	11.925959	0.163496
5113.216415	0.406745	406.054687	-26.367187
5113.218419	0.973523	406.054687	-26.367187
5113.220418	1.088101	406.054687	-26.367187
5113.222419	1.084957	11.934528	0.158630
5114.262952	0.448827	76.562500	406.347656
5114.264952	0.752232	76.562500	406.347656
5114.266952	1.024096	76.562500	406.347656
5114.268953	1.086021	76.562500	406.347656
5114.270955	1.082996	11.912957	0.164958
5115.295004	0.738951	403.808594	-26.953125
5115.297006	1.015242	403.808594	-26.953125
5115.299005	1.085795	403.808594	-26.953125
5115.301005	1.082754	11.910290	0.157643
5116.339582	0.678112	81.542969	388.085937
5116.341584	0.968860	81.542969	388.085937
5116.343583	1.086432	81.542969	388.085937
5116.345585	1.083382	11.917204	0.162077
5117.370138	0.428806	409.082031	-27.441406
5117.372138	0.732760	409.082031	-27.441406
5117.374140	1.011201	409.082031	-27.441406
5117.376139	1.086415	409.082031	-27.441406
5117.378141	1.083306	11.916362	0.154477
5118.411119	0.441385	82.421875	385.156250
5118.413121	0.452878	82.421875	385.156250
5118.415120	1.019128	82.421875	385.156250
5118.417122	1.085554	82.421875	385.156250
5118.419121	1.082445	11.906897	0.164425
5119.447717	0.488725	400.976562	-27.441406
5119.451718	1.046076	400.976562	-27.441406
5119.453718	1.085374	400.976562	-27.441406
5119.455720	1.082599	11.908589	0.156997
5120.489806	0.591662	78.710937	401.562500
5120.491809	0.889474	78.710937	401.562500
5120.495806	1.084219	78.710937	401.562500
5120.497809	1.081812	78.710937	401.562500
5120.499808	1.080228	11.882507	0.418716
5121.523869	0.409778	412.597656	-27.734375
5121.525871	0.714513	412.597656	-27.734375
5121.527872	0.998061	412.597656	-27.734375
5121.531870	1.083975	412.597656	-27.734375
5121.533872	1.082030	11.902332	0.156966
5122.563867	0.584210	76.562500	409.375000
5122.565868	0.882360	76.562500	409.375000
5122.567876	1.078902	76.562500	409.375000
5122.569875	1.084131	76.562500	409.375000
5122.571877	1.081607	11.897679	0.161100
5123.601958	0.547136	392.773437	-27.050781
5123.603956	0.847113	392.773437	-27.050781
5123.605957	1.069816	392.773437	-27.050781
5123.607958	1.084814	392.773437	-27.050781
5123.609957	1.082303	11.905336	0.208972
5124.637954	0.345441	78.515625	404.589844
5124.639956	0.652595	78.515625	404.589844
5124.643954	1.085883	78.515625	404.589844
5124.645956	1.083583	78.515625	404.589844
5124.647958	1.081356	11.894914	0.158775
5125.678009	0.373597	395.410156	-27.050781
5125.682008	0.970190	395.410156	-27.050781
5125.684010	1.086104	395.410156	-27.050781
5125.688008	1.080982	11.890801	0.158839
5126.714053	0.571831	81.835937	391.894531
5126.718055	1.076200	81.835937	391.894531
5126.720055	1.083998	81.835937	391.894531
5126.722055	1.081459	11.896049	0.320675
5127.757022	0.806566	389.843750	-26.269531
5127.759026	1.053738	389.843750	-26.269531
5127.761024	1.084844	389.843750	-26.269531
5127.763025	1.082166	11.903830	0.153614
5128.789049	0.472302	79.394531	399.609375
5128.791052	0.774825	79.394531	399.609375
5128.795051	1.085387	79.394531	399.609375
5128.797052	1.082466	79.394531	399.609375
5128.799050	1.080574	11.886318	0.160129
5129.831128	0.417804	403.808594	-27.246094
5129.833129	0.722167	403.808594	-27.246094
5129.835132	1.003617	403.808594	-27.246094
5129.837131	1.086473	403.808594	-27.246094
5129.839130	1.083434	11.917770	0.155164
5130.865169	0.386769	79.394531	398.828125
5130.867169	0.692332	79.394531	398.828125
5130.869169	0.980776	79.394531	398.828125
5130.871167	1.087469	79.394531	398.828125
5130.873168	1.084301	11.927305	0.158526
5131.907201	0.325637	396.582031	-27.148437
5131.909205	0.633653	396.582031	-27.148437
5131.911205	0.929041	396.582031	-27.148437
5131.913205	1.085148	396.582031	-27.148437
5131.915204	1.083852	11.922370	0.158648
5132.941215	0.450108	82.714844	385.058594
5132.943224	0.753380	82.714844	385.058594
5132.945225	1.025734	82.714844	385.058594
5132.947225	1.085823	82.714844	385.058594
5132.949226	1.082771	11.910485	0.155980
5133.987258	0.982805	408.593750	-27.539062
5133.989261	1.086432	408.593750	-27.539062
5133.991260	1.083322	11.916538	0.157264
5135.019801	0.739913	75.976562	410.058594
5135.021804	1.015904	75.976562	410.058594
5135.023805	1.085897	75.976562	410.058594
5135.025805	1.082769	11.910460	0.160874
5136.059851	0.455368	405.468750	-27.441406
5136.061853	0.758422	405.468750	-27.441406
5136.063852	1.027790	405.468750	-27.441406
5136.065852	1.085417	405.468750	-27.441406
5136.067853	1.082377	11.906152	0.162817
5137.094424	0.664096	80.664062	392.871094
5137.096424	0.675990	80.664062	392.871094
5137.098425	1.086755	80.664062	392.871094
5137.100424	1.084189	11.926074	0.160091
5138.137030	0.690641	387.695312	-26.953125
5138.139033	0.979325	387.695312	-26.953125
5138.141031	1.087403	387.695312	-26.953125
5138.143031	1.084301	11.927305	0.156721
5139.171068	0.582274	80.468750	391.796875
5139.173069	0.880590	80.468750	391.796875
5139.175069	1.078818	80.468750	391.796875
5139.177069	1.084364	80.468750	391.796875
5139.181067	1.080273	11.883003	0.159504
5140.213635	0.599660	398.242187	-27.441406
5140.215638	0.897007	398.242187	-27.441406
5140.217637	1.081953	398.242187	-27.441406
5140.219638	1.084429	398.242187	-27.441406
5140.221638	1.082043	11.902473	0.448351
5141.245673	0.341349	77.148437	409.570312
5141.247676	0.648752	77.148437	409.570312
5141.249674	0.943084	77.148437	409.570312
5141.251676	1.088137	77.148437	409.570312
5141.253677	1.085877	11.944651	0.158906
5142.289761	0.750039	388.671875	-27.441406
5142.291762	1.022540	388.671875	-27.441406
5142.293763	1.085731	388.671875	-27.441406
5142.295762	1.082771	11.910485	0.153521
5143.321786	0.251673	76.171875	411.523437
5143.323787	0.562706	76.171875	411.523437
5143.325795	0.862083	76.171875	411.523437
5143.327799	1.074295	76.171875	411.523437
5143.331797	1.081370	76.171875	411.523437
5143.333800	1.079789	11.877677	0.158277
5144.363896	0.599036	398.242187	-28.320312
5144.365898	0.896354	398.242187	-28.320312
5144.367897	1.081754	398.242187	-28.320312
5144.369898	1.084369	398.242187	-28.320312
5144.371898	1.081944	11.901384	0.450038
5145.401937	0.633312	83.105469	386.621094
5145.403937	0.928654	83.105469	386.621094
5145.405938	1.085528	83.105469	386.621094
5145.407940	1.084180	11.925978	0.154628
5146.439983	0.667135	413.183594	-28.320312
5146.441987	0.959420	413.183594	-28.320312
5146.443985	1.086825	413.183594	-28.320312
5146.445986	1.084051	11.924559	0.152585
5147.475940	0.300317	81.640625	390.429687
5147.477942	0.609324	81.640625	390.429687
5147.479966	0.906076	81.640625	390.429687
5147.481967	1.084220	81.640625	390.429687
5147.483969	1.084693	81.640625	390.429687
5147.485967	1.082440	11.906843	0.165897
5148.512947	0.333783	395.507812	-28.125000
5148.514950	0.641520	395.507812	-28.125000
5148.516948	0.936230	395.507812	-28.125000
5148.518950	0.943746	395.507812	-28.125000
5148.520950	1.083579	11.919366	0.154023
5149.557002	0.887393	75.195312	410.937500
5149.559003	1.080255	75.195312	410.937500
5149.561003	1.084355	75.195312	410.937500
5149.563003	1.081901	11.900914	0.403175
5150.589049	0.559937	399.218750	-27.539062
5150.591050	0.859374	399.218750	-27.539062
5150.593049	1.073445	399.218750	-27.539062
5150.595051	1.084455	399.218750	-27.539062
5150.597050	1.081873	11.900603	0.258471
5151.631652	0.351634	77.929687	402.832031
5151.633655	0.658585	77.929687	402.832031
5151.635656	0.951845	77.929687	402.832031
5151.637656	1.086606	77.929687	402.832031
5151.639656	1.084155	11.925702	0.155158
5152.663700	0.487872	386.914062	-26.953125
5152.665701	0.789832	386.914062	-26.953125
5152.667703	1.045630	386.914062	-26.953125
5152.669702	1.085084	386.914062	-26.953125
5152.671703	1.082288	11.905169	0.149789
