time (s)	coil I (A)	last det (V)	int current (uC)
553.537908	0.185344	453.515625	-63.281250
553.539909	0.184910	2.034014	0.658455
554.585914	0.184962	160.644531	217.968750
554.587915	0.185595	2.041547	0.585197
555.615942	0.183196	452.734375	-65.234375
555.617944	0.182951	2.012461	0.805930
556.664024	0.186398	150.000000	237.597656
556.666026	0.185804	2.043843	0.620742
557.692023	0.184450	451.855469	-65.527344
557.694027	0.184420	2.028617	0.620419
558.736081	0.184657	159.570312	216.796875
558.738084	0.183985	2.023840	0.603553
559.768666	0.183554	451.367187	-67.285156
559.770667	0.183941	2.023353	0.632675
560.804716	0.185563	160.351562	217.285156
560.806718	0.184842	2.033261	0.625045
561.848767	0.185787	452.929687	-65.039062
561.850770	0.185047	2.035521	0.635440
562.882836	0.185093	155.664062	226.464844
562.884837	0.185076	2.035840	0.620179
563.924951	1.515561	454.589844	-64.453125
563.926952	0.185378	2.039154	0.637697
564.953935	0.183964	158.691406	219.726562
564.955936	0.183504	2.018549	0.800241
566.000445	0.185660	462.304687	-61.328125
566.002446	0.185170	2.036868	0.636917
567.034458	0.184569	160.351562	216.113281
567.036463	0.183952	2.023468	0.655842
568.073412	0.184511	462.109375	-61.523437
568.075413	0.184215	2.026366	0.667964
569.113927	0.184819	156.347656	226.367187
569.115930	0.184289	2.027181	0.596621
570.139985	0.184584	454.296875	-64.843750
570.141985	0.185032	2.035352	0.649337
571.194960	0.147973	158.105469	219.824219
571.196966	0.183539	2.018930	0.588896
572.219501	0.185427	454.687500	-63.769531
572.221504	0.184959	2.034546	0.957804
573.263514	0.180193	157.714844	220.019531
573.265514	0.186268	157.714844	220.019531
573.269513	0.185262	2.037887	0.635711
574.297542	0.184367	453.222656	-65.820312
574.299544	0.183752	2.021270	0.629772
575.333544	0.170102	158.593750	222.558594
575.335546	0.184610	158.593750	222.558594
575.337546	0.184035	2.024390	0.618375
576.379600	0.185963	458.007812	-62.402344
576.381600	0.185366	2.039021	0.629889
577.407575	0.185840	150.976562	238.281250
577.409575	0.185005	2.035051	0.635980
578.453597	0.177001	461.328125	-61.718750
578.455599	0.184631	461.328125	-61.718750
578.457598	0.184178	2.025958	0.648399
579.483635	0.185239	161.425781	215.820312
579.485637	0.184588	2.030469	0.610364
580.532630	0.185369	463.867187	-60.839844
580.534634	0.184949	2.034440	0.641452
581.564709	0.184492	160.156250	219.433594
581.566710	0.184085	2.024930	0.616351
582.603289	0.186137	466.308594	-59.375000
582.605292	0.185724	2.042965	0.662822
583.643352	0.184128	156.835937	227.832031
583.645355	0.183836	2.022192	0.592850
584.673914	0.186295	467.675781	-59.375000
584.675916	0.185448	2.039925	0.656689
585.715943	0.185975	159.179687	224.511719
585.717945	0.185188	2.037071	0.602569
586.747966	0.185961	467.187500	-59.765625
586.749968	0.185700	2.042699	0.660384
587.795998	0.184151	157.812500	226.953125
587.798000	0.183607	2.019675	0.604296
588.826070	0.185733	466.210937	-60.351562
588.830071	0.184946	2.034404	0.666489
589.868178	0.185761	158.300781	226.660156
589.870181	0.185026	2.035290	0.611803
590.900206	0.185866	467.773437	-58.984375
590.902207	0.185127	2.036398	0.663966
591.944249	0.182597	157.031250	228.027344
591.946250	0.185334	2.038676	0.600623
592.976298	0.184003	464.746094	-61.035156
592.980302	0.183360	2.016963	0.655554
594.020893	0.184016	163.085937	215.039062
594.022895	0.183652	2.020171	0.606666
595.054895	0.184989	467.578125	-59.667969
595.056900	0.184534	2.029876	0.671393
596.093423	0.184540	163.085937	215.136719
596.095423	0.184093	2.025028	1.007733
597.133417	0.184045	466.992187	-60.058594
597.135419	0.183740	2.021137	0.649425
598.165501	0.179808	154.882812	229.980469
598.167503	0.184786	154.882812	229.980469
598.169504	0.184332	2.027651	0.615342
599.211562	0.184527	466.308594	-60.058594
599.213564	0.184184	2.026029	0.655366
600.241596	0.185979	164.453125	208.496094
600.243597	0.184975	2.034723	0.624621
601.285622	0.186809	463.281250	-60.253906
601.287626	0.186216	2.048380	0.648955
602.313619	0.184731	162.988281	212.792969
602.315620	0.185200	2.037196	0.630998
603.360591	0.185553	457.910156	-64.648437
603.362593	0.185063	2.035698	0.638655
604.393162	0.186234	151.660156	235.839844
604.395162	0.185616	2.041778	0.674798
605.431202	0.186328	454.882812	-67.578125
605.433204	0.185524	2.040767	0.641690
606.473250	0.184706	162.109375	212.792969
606.475252	0.184025	2.024274	0.628219
607.502286	0.184613	457.324219	-64.160156
607.504289	0.188194	2.070137	0.659984
608.550863	0.187489	153.125000	231.542969
608.552863	0.186808	2.054885	0.618096
609.576955	0.184968	461.523437	-61.425781
609.578959	0.184213	2.026348	0.657654
610.625522	0.183593	158.886719	222.949219
610.627521	0.185466	2.040129	0.616390
611.655600	0.186388	468.847656	-58.007812
611.657599	0.185769	2.043461	0.676790
612.697632	0.185111	156.250000	227.929687
612.699635	0.184404	2.028449	0.610972
613.733685	0.184550	468.554687	-58.496094
613.735687	0.184001	2.024009	0.653504
614.769790	0.184800	154.199219	230.468750
614.771791	0.184239	2.026632	0.614171
615.815824	0.185800	467.578125	-57.910156
615.817823	0.185780	2.043577	0.654961
616.843812	0.185568	159.179687	218.750000
616.845814	0.185001	2.035007	0.626670
617.892388	0.184458	460.742187	-61.816406
617.894391	0.184105	2.025152	0.636766
618.918438	0.185951	151.855469	235.058594
618.920441	0.185226	2.037488	0.626089
619.964439	0.185994	460.253906	-62.109375
619.966441	0.186149	2.047635	0.646402
620.995010	0.184748	157.324219	223.046875
620.999010	0.184755	2.032304	0.637912
622.039031	0.185173	458.007812	-64.550781
622.041033	0.184610	2.030709	0.639867
623.071569	0.183966	158.593750	220.117187
623.073569	0.185569	2.041255	0.634692
624.111626	0.184865	459.667969	-63.476562
624.113628	0.185351	2.038862	0.645333
625.149708	0.184343	151.757812	233.691406
625.151710	0.184016	2.024177	0.635011
626.189750	0.188021	459.667969	-63.183594
626.193750	0.187497	2.062471	0.887745
627.225764	0.185582	156.933594	221.777344
627.227765	0.185000	2.034998	0.636758
628.261878	0.185167	459.765625	-63.378906
628.263880	0.184530	2.029831	0.650726
629.299865	0.186043	152.636719	231.347656
629.301875	0.185307	2.038374	0.641645
630.339888	0.185370	460.253906	-63.281250
630.341894	0.184796	2.032756	0.669814
631.375894	0.184785	160.644531	214.941406
631.377897	0.184365	2.028014	0.975091
632.414891	0.185793	458.593750	-64.453125
632.416894	0.185328	2.038605	0.650087
633.449460	0.185176	156.738281	224.609375
633.451462	0.184558	2.030141	0.737162
634.495477	0.184466	460.156250	-62.988281
634.497480	0.184110	2.025205	0.640878
635.524013	0.185068	155.761719	226.757812
635.526015	0.184573	2.030301	0.645774
636.570041	1.266308	462.109375	-60.839844
636.572043	0.185463	2.040094	0.654478
637.596984	0.185075	151.074219	236.621094
637.598985	0.185340	2.038738	0.638924
638.647017	0.184840	464.257812	-59.960937
638.649016	0.184479	2.029273	0.648791
639.673580	0.178196	151.171875	236.914062
639.675581	0.185154	151.171875	236.914062
639.677583	0.184647	2.031116	0.630632
640.719575	0.185156	469.238281	-57.910156
640.721581	0.184781	2.032596	0.663836
641.753625	0.184976	161.425781	216.308594
641.755627	0.184414	2.028555	0.640520
642.790612	0.184999	470.312500	-57.324219
642.792614	0.184383	2.028209	0.664765
643.832646	0.185287	150.390625	240.527344
643.834649	0.184857	2.033429	0.884476
644.864643	0.184757	470.312500	-56.250000
644.866644	0.184336	2.027695	0.666527
645.910700	0.189327	162.597656	213.964844
645.912702	0.188739	2.076128	0.615725
646.936740	0.185437	464.941406	-59.277344
646.938741	0.184785	2.032632	0.661383
647.988839	0.184853	162.402344	211.425781
647.990840	0.184532	2.029849	0.624569
649.013799	0.186959	462.890625	-60.546875
649.015801	0.186399	2.050392	0.661103
650.059769	0.185073	162.988281	208.105469
650.061771	0.184681	2.031488	0.645109
651.092378	0.187110	461.035156	-63.867187
651.096379	0.186134	2.047476	0.658280
652.132932	0.185653	161.816406	213.378906
652.134932	0.185230	2.037533	0.640720
653.171531	0.188131	460.156250	-63.574219
653.173534	0.187540	2.062941	0.648060
654.202486	0.168257	153.515625	232.519531
654.204487	0.185797	153.515625	232.519531
654.206489	0.185105	2.036159	0.643359
655.250593	0.185217	463.867187	-60.742187
655.252592	0.184794	2.032738	0.649450
656.277136	0.187182	155.175781	228.027344
656.279138	0.186896	2.055851	0.642506
657.325176	0.187441	468.164062	-57.910156
657.327177	0.186870	2.055567	0.656527
658.353228	0.185935	152.148437	234.375000
658.355228	0.185150	2.036655	0.635249
659.401281	0.189440	466.406250	-59.179687
659.403283	0.188982	2.078804	0.658158
660.432287	0.188294	156.054687	226.367187
660.434289	0.187867	2.066539	0.630223
661.472346	0.183648	469.628906	-58.105469
661.474348	0.185794	2.043736	0.668442
662.508412	0.185416	158.496094	220.019531
662.510414	0.185055	2.035609	0.626350
663.548935	0.185683	467.968750	-58.789062
663.550938	0.185712	2.042832	0.671467
664.582981	0.187085	154.492187	228.613281
664.584984	0.186292	2.049213	0.624311
665.623036	0.171664	470.898437	-57.128906
665.625040	0.185938	470.898437	-57.128906
665.627039	0.185185	2.037036	0.667633
666.657070	0.177961	152.929687	232.910156
666.659072	0.185182	152.929687	232.910156
666.661073	0.184774	2.032516	0.632486
667.703099	0.186252	470.117187	-57.714844
667.705103	0.186220	2.048424	0.669680
668.733643	0.185590	160.839844	215.527344
668.735644	0.184925	2.034173	0.622952
669.775718	0.184177	469.726562	-57.714844
669.777721	0.185465	2.040120	0.666512
670.809804	0.185027	157.031250	223.730469
670.811807	0.184661	2.031267	0.635869
671.852374	0.187121	469.921875	-57.324219
671.854377	0.186404	2.050445	0.664656
672.882423	0.185519	151.562500	235.742187
672.884423	0.184950	2.034448	0.634248
673.928466	0.187371	468.554687	-57.519531
673.930467	0.186695	2.053644	0.658558
674.958551	0.185598	161.523437	214.843750
674.960551	0.185024	2.035264	0.644774
676.005132	0.185687	467.480469	-57.812500
676.007132	0.185108	2.036186	0.650411
677.033181	0.178343	153.710937	232.617187
677.035185	0.186038	153.710937	232.617187
677.037183	0.185426	2.039686	0.653134
678.079247	0.184997	462.890625	-61.914062
678.081248	0.184512	2.029627	1.006165
679.111296	0.166063	153.808594	230.273437
679.113298	0.185992	153.808594	230.273437
679.115297	0.185374	2.039119	0.656059
680.149332	0.180958	464.941406	-60.839844
680.151334	0.185438	2.039819	0.662118
681.189291	0.182682	159.277344	217.089844
681.191293	0.185544	2.040980	0.647211
682.223312	0.186867	463.085937	-61.035156
682.225315	0.186828	2.055106	0.665895
683.269886	0.186317	153.027344	231.347656
683.271888	0.185557	2.041131	0.637444
684.295989	0.185460	463.867187	-59.765625
684.297989	0.184777	2.032552	0.666435
685.346069	0.187095	156.738281	225.488281
685.348071	0.186398	2.050383	0.624719
686.372112	0.184666	468.457031	-57.421875
686.374113	0.185693	2.042619	0.679770
687.420677	0.186741	157.519531	224.804687
687.422678	0.185985	2.045836	0.623831
688.450735	0.185813	472.949219	-54.882812
688.452737	0.185144	2.036584	0.667864
689.490751	0.185529	154.101562	231.347656
689.492752	0.186862	2.055487	0.631219
690.528792	0.185164	471.875000	-55.761719
690.530794	0.184504	2.029547	0.665945
691.565343	0.186855	156.640625	224.609375
691.567345	0.186290	2.049186	0.629957
692.605405	0.182228	470.410156	-56.640625
692.607406	0.185218	2.037400	0.669778
693.639454	0.185543	160.839844	214.941406
693.641455	0.184823	2.033057	0.631661
694.683477	0.186174	467.285156	-57.714844
694.685478	0.185447	2.039917	0.666568
695.713477	0.185738	153.710937	229.492187
695.715478	0.185490	2.040386	0.638679
696.761506	0.184980	468.066406	-57.421875
696.763508	0.184437	2.028803	0.657505
697.792091	0.186508	150.000000	237.695312
697.794094	0.185577	2.041352	0.640603
698.836195	0.185766	467.871094	-57.128906
698.838197	0.185109	2.036194	0.652890
699.862242	0.186870	153.027344	231.152344
699.866240	0.186025	2.046271	0.647982
700.912752	0.186168	467.187500	-57.519531
700.914754	0.185538	2.040918	0.647442
701.942803	0.185659	157.421875	220.605469
701.944806	0.185243	2.037674	0.714033
702.985425	0.186923	466.699219	-57.910156
702.987427	0.186441	2.050853	0.654255
704.015469	0.185506	154.199219	228.027344
704.017469	0.185047	2.035512	0.802569
705.061501	0.168097	466.796875	-58.496094
705.063501	0.185529	466.796875	-58.496094
705.065501	0.184913	2.034041	0.659230
706.091520	0.185835	161.132812	213.378906
706.093522	0.185055	2.035600	0.640793
707.137508	0.188048	468.554687	-56.347656
707.139508	0.187459	2.062046	0.652966
708.167517	0.185473	157.421875	221.093750
708.169519	0.185032	2.035352	0.645136
709.214101	0.186712	469.921875	-55.566406
709.216102	0.186065	2.046714	0.656420
710.244112	0.185308	157.226562	221.093750
710.246113	0.184940	2.034342	0.637954
711.290663	0.185216	468.652344	-57.031250
711.292665	0.184866	2.033527	0.657335
712.319190	0.186205	150.683594	235.156250
712.321190	0.186188	2.048070	0.647660
713.365227	0.185152	469.531250	-56.738281
713.367229	0.184766	2.032428	0.661382
714.393780	0.187151	151.367187	235.644531
714.395781	0.186513	2.051641	0.634743
715.437812	0.185474	474.414062	-54.394531
715.439814	0.185143	2.036575	0.671248
716.473845	0.187327	158.203125	221.875000
716.475847	0.186916	2.056072	0.632075
717.512421	0.186245	472.460937	-55.078125
717.514423	0.185971	2.045677	0.676197
718.551034	0.187453	156.445312	225.683594
718.553038	0.186829	2.055115	0.624627
719.581109	0.173947	474.023437	-54.101562
719.583113	0.185798	474.023437	-54.101562
719.585112	0.185225	2.037479	0.678635
720.629583	0.185726	154.785156	229.296875
720.631584	0.185250	2.037745	0.627901
721.655655	0.185949	471.777344	-55.175781
721.657658	0.185308	2.038392	0.700674
722.705653	0.186023	151.464844	235.351562
722.707656	0.185286	2.038144	0.634307
723.733634	0.185020	467.089844	-57.519531
723.737635	0.184418	2.028599	0.670648
724.780154	0.186603	162.890625	207.617187
724.782155	0.185868	2.044543	0.644340
725.806721	0.168977	466.699219	-58.593750
725.808721	0.185782	466.699219	-58.593750
725.810721	0.185255	2.037807	0.670874
726.854770	1.685386	151.562500	230.664062
726.856771	0.184819	2.033013	0.643896
727.886771	0.186142	464.746094	-61.328125
727.888773	0.185374	2.039110	0.659871
728.927286	0.185823	157.519531	218.554687
728.929287	0.185212	2.037337	0.649765
729.967383	0.185285	465.527344	-60.937500
729.969385	0.184980	2.034785	0.705156
731.003932	0.185325	160.742187	213.085937
731.005934	0.185022	2.035246	0.649924
732.044438	0.185118	464.843750	-59.863281
732.046442	0.184768	2.032445	0.710919
733.074432	0.186786	152.148437	231.152344
733.076432	0.186175	2.047928	0.649886
734.120496	0.186995	467.089844	-58.203125
734.122497	0.186965	2.056613	0.657493
735.149013	0.184852	154.589844	225.878906
735.151016	0.185285	2.038135	0.652287
736.197093	0.185810	471.093750	-55.664062
736.201094	0.185167	2.036841	0.662013
737.225123	0.396741	159.277344	214.648437
737.227125	0.185850	2.044348	0.650638
738.271701	0.185965	471.093750	-55.664062
738.273703	0.185293	2.038224	0.746130
739.297766	0.171121	161.621094	211.328125
739.301767	0.185152	161.621094	211.328125
739.303769	0.184831	2.033146	0.657404
740.345784	0.186403	469.628906	-56.640625
740.347787	0.185847	2.044321	0.673507
741.376312	0.185598	148.242187	241.308594
741.378314	0.185163	2.036788	0.647991
742.422285	0.186453	473.535156	-54.101562
742.424287	0.185814	2.043958	0.686143
743.450292	0.185599	155.664062	225.683594
743.452292	0.185889	2.044782	0.646223
744.498360	0.185883	472.851562	-54.492187
744.502360	0.185128	2.036407	0.666583
745.526430	0.186449	160.449219	214.648437
745.528432	0.185746	2.043204	0.652049
746.573408	0.185873	472.265625	-54.687500
746.575410	0.185221	2.037426	0.660174
747.603420	0.185640	161.328125	212.890625
747.605422	0.185164	2.036806	0.648244
748.648375	2.164453	471.582031	-54.785156
748.650377	0.186953	2.056480	0.667170
749.680430	0.185451	161.425781	214.062500
749.682431	0.185078	2.035857	0.647771
750.725417	0.185109	468.457031	-57.421875
750.727420	0.184684	2.031524	0.654528
751.754007	0.187830	155.371094	225.488281
751.756008	0.187179	2.058970	0.655053
752.796056	0.187542	465.625000	-60.058594
752.800056	0.186481	2.051296	0.660250
753.832115	0.187825	156.250000	222.265625
753.834117	0.187163	2.058793	0.653126
754.872165	0.186423	468.945312	-58.300781
754.874166	0.186056	2.046616	0.660146
755.910167	0.186563	156.152344	220.800781
755.912169	0.185890	2.044791	0.650876
756.942194	1.812794	468.457031	-57.714844
756.944194	0.185955	2.045508	0.672927
757.992228	0.185161	161.230469	209.863281
757.994231	0.184893	2.033819	0.643799
759.016795	0.186143	468.261719	-57.324219
759.018797	0.185523	2.040750	0.671436
760.064820	2.082637	150.781250	233.789062
760.066825	0.187710	2.064811	0.640789
761.092851	0.185767	468.457031	-56.250000
761.094851	0.185284	2.038126	0.683366
762.141418	0.186056	163.183594	211.230469
762.143419	0.185304	2.038348	0.637228
763.167446	0.187588	472.558594	-54.296875
763.169448	0.186861	2.055470	0.677601
764.215503	0.185863	160.742187	218.066406
764.217506	0.185119	2.036309	0.630877
765.244114	0.183960	472.265625	-54.589844
765.246116	0.185580	2.041379	0.677122
766.290214	0.187638	162.109375	214.355469
766.292217	0.187034	2.057375	0.632878
767.323168	0.187367	474.804687	-53.906250
767.325170	0.186911	2.056019	0.680054
768.365224	0.185509	157.421875	221.875000
768.367225	0.185030	2.035335	0.630015
769.401779	0.185424	475.195312	-53.125000
769.403780	0.185080	2.035884	0.673629
770.435857	0.186876	161.523437	212.500000
770.437860	0.186133	2.047467	0.642400
771.480829	0.185020	473.730469	-54.296875
771.482831	0.184843	2.033270	0.674698
772.509373	0.183268	154.589844	225.683594
772.513373	0.185382	2.039199	0.644287
773.555403	0.185640	473.144531	-54.394531
773.557405	0.185329	2.038622	0.715996
774.587416	0.186498	146.582031	243.554687
774.589416	0.186113	2.047246	0.637591
775.629435	0.182755	472.851562	-54.492187
775.631437	0.185523	2.040758	0.669633
776.659527	0.186531	150.097656	235.156250
776.661530	0.186286	2.049142	0.646900
777.707549	0.185266	470.898437	-55.371094
777.709550	0.184881	2.033695	0.665558
778.736547	0.187230	148.437500	238.281250
778.738547	0.186699	2.053688	0.644382
779.780584	2.384083	471.289062	-54.882812
779.782586	0.185098	2.036079	0.671108
780.815098	0.185186	159.472656	214.257812
780.817100	0.184926	2.034183	0.643146
781.856053	0.185496	472.460937	-54.394531
781.858055	0.186339	2.049727	0.669816
782.886150	0.187203	160.839844	212.011719
782.888151	0.186599	2.052589	0.644236
783.932205	0.186617	474.316406	-53.515625
783.934208	0.186014	2.046155	0.680494
784.964265	0.185350	155.468750	222.753906
784.966268	0.184825	2.033075	0.644023
786.010801	0.188898	473.535156	-54.199219
786.012802	0.188699	2.075685	0.670322
787.038857	0.188268	150.781250	233.593750
787.040860	0.187652	2.064173	0.640918
788.080962	0.185736	472.363281	-54.589844
788.082966	0.185018	2.035202	0.675432
789.115000	0.184046	153.906250	227.441406
789.117002	0.185982	2.045801	0.642461
790.155070	0.186832	473.730469	-53.906250
790.157072	0.186251	2.048761	0.675630
791.194039	0.186779	147.265625	242.968750
791.196041	0.186227	2.048495	0.638908
792.228069	0.178107	476.757812	-52.050781
792.230071	0.185972	476.757812	-52.050781
792.232072	0.185383	2.039216	0.683060
793.272135	0.185208	157.910156	222.167969
793.274135	0.184868	2.033545	0.632518
794.302694	0.187041	477.343750	-51.660156
794.304695	0.186332	2.049656	0.684159
795.348729	0.186061	159.082031	219.921875
795.350730	0.185471	2.040182	0.772224
796.377719	0.186435	475.195312	-52.734375
796.379719	0.185733	475.195312	-52.734375
796.381720	0.185489	2.040377	0.686750
797.425751	0.186352	161.230469	215.820312
797.427754	0.185685	2.042531	0.656967
798.449762	0.167481	471.679687	-54.492187
798.451764	0.185684	471.679687	-54.492187
798.453764	0.185081	2.035893	0.693079
799.500721	0.187803	151.464844	233.886719
799.502721	0.187153	2.058678	0.638562
800.528766	0.185212	468.945312	-55.664062
800.530768	0.184798	2.032773	0.674300
801.575674	0.187410	155.664062	222.558594
801.577676	0.186906	2.055966	0.648600
802.603734	0.187140	471.386719	-54.589844
802.605736	0.186612	2.052731	0.728459
803.651739	0.187217	148.535156	236.230469
803.653741	0.186810	2.054912	0.650288
804.679751	0.181730	470.214844	-57.031250
804.681752	0.186649	2.053139	0.673181
805.723798	0.186937	160.058594	212.402344
805.725803	0.186203	2.048229	0.659462
806.758356	0.187471	470.410156	-57.812500
806.760357	0.187066	2.057730	0.667214
807.796378	0.186150	154.785156	223.925781
807.798379	0.185580	2.041379	0.806523
808.836449	0.185194	467.871094	-59.179687
808.838451	0.184878	2.033660	0.665593
809.871461	0.186909	154.589844	223.925781
809.875463	0.186015	2.046164	0.661222
810.911524	0.175657	470.312500	-57.031250
810.913525	0.185833	470.312500	-57.031250
810.915527	0.185278	2.038055	0.666678
811.945560	0.186079	153.222656	228.515625
811.947563	0.185443	2.039872	0.654696
812.989612	0.185996	469.628906	-56.835937
812.991614	0.185653	2.042185	0.667497
814.020606	0.185830	156.738281	219.824219
814.022608	0.185287	2.038153	0.790939
815.065189	0.186357	472.363281	-55.175781
815.067193	0.185957	2.045526	0.666314
816.097239	0.185568	159.375000	212.890625
816.099244	0.185164	2.036806	0.654656
817.143249	0.185989	473.730469	-54.003906
817.145252	0.185543	2.040971	0.661987
818.169251	0.182296	150.195312	233.300781
818.171252	0.186631	2.052944	0.664538
819.217231	0.185664	472.851562	-54.589844
819.219233	0.185043	2.035476	0.663683
820.247270	0.185639	157.617187	216.699219
820.249272	0.185131	2.036443	0.753393
821.292182	0.187957	473.437500	-54.199219
821.294184	0.187488	2.062365	0.666059
822.322173	0.185362	155.468750	221.679687
822.324175	0.184776	2.032534	0.730364
823.370225	0.185574	470.410156	-56.738281
823.372229	0.185287	2.038162	0.658393
824.396798	0.186062	156.542969	219.042969
824.400796	0.185903	2.044932	0.661755
825.442867	1.316580	469.238281	-57.421875
825.444870	0.185429	2.039721	0.666539
826.477905	0.187128	151.269531	228.320312
826.479906	0.186850	2.055346	0.660233
827.515978	0.184446	470.800781	-57.031250
827.517980	0.186141	2.047556	0.669569
828.552051	0.186330	155.175781	219.042969
828.554053	0.185738	2.043116	0.655237
829.592150	0.184617	470.898437	-57.128906
829.594152	0.185671	2.042380	0.668032
830.628645	0.187473	153.027344	224.414062
830.630647	0.187149	2.058642	0.658983
831.664701	0.186178	471.093750	-56.933594
831.666703	0.185491	2.040404	0.668104
832.704754	0.164565	151.855469	226.953125
832.708755	0.185366	151.855469	226.953125
832.712754	0.184900	2.033899	0.659881
833.736858	0.182964	471.289062	-56.152344
833.740860	0.185834	2.044170	0.676313
834.783349	0.186139	157.812500	214.062500
834.785350	0.185457	2.040023	0.652556
835.811892	0.183746	469.824219	-56.347656
835.813895	0.186677	2.053449	0.675921
836.860867	0.186063	157.519531	214.648437
836.862867	0.186005	2.046058	0.815356
837.885389	0.185349	470.214844	-54.785156
837.889389	0.185494	2.040431	0.693547
838.935964	0.186045	150.292969	232.714844
838.939964	0.185037	2.035406	0.643982
839.964017	0.185913	474.316406	-52.148437
839.966019	0.185323	474.316406	-52.148437
839.968017	0.185038	2.035414	0.686661
841.012104	0.185955	153.320312	227.148437
841.014103	0.185438	2.039819	0.632928
842.040123	0.186979	475.683594	-51.562500
842.042128	0.186595	2.052545	0.684928
843.084176	0.173318	153.808594	227.539062
843.086177	0.186325	153.808594	227.539062
843.088177	0.185674	2.042416	0.641270
844.116208	0.186089	473.242187	-53.027344
844.118210	0.185476	2.040236	0.685297
845.160234	0.186260	149.023437	237.304687
845.162236	0.185704	2.042743	0.677774
846.192243	0.186362	476.464844	-51.660156
846.194244	0.185802	2.043825	0.681543
847.234354	0.186486	151.660156	230.566406
847.236357	0.186118	2.047299	0.637306
848.272397	0.188995	477.832031	-50.585937
848.274398	0.188761	2.076367	0.694721
849.308404	0.186510	149.902344	234.375000
849.310407	0.185742	2.043160	0.646784
850.346443	0.187516	477.636719	-50.878906
850.348447	0.186821	2.055027	0.676654
851.382546	0.188253	150.585937	232.812500
851.384551	0.187941	2.067354	0.645918
852.424605	0.187251	475.000000	-52.343750
852.426606	0.186817	2.054991	0.677861
853.459139	0.185950	155.761719	219.824219
853.461140	0.185414	2.039553	0.877060
854.500123	0.186522	474.023437	-52.832031
854.502125	0.186081	2.046891	0.676132
855.533081	0.186783	150.683594	230.468750
855.535082	0.185997	2.045969	0.647266
856.579162	0.184922	475.097656	-52.246094
856.581163	0.184821	2.033031	0.774507
857.607723	0.183927	147.949219	236.035156
857.611723	0.185494	2.040439	0.654499
858.651754	0.186136	476.367187	-51.660156
858.653755	0.186119	2.047307	0.680789
859.683784	0.186983	160.351562	211.230469
859.685784	0.186764	2.054406	0.646325
860.725802	0.186863	474.511719	-52.148437
860.727805	0.186250	2.048752	0.806539
861.758740	0.167722	149.511719	235.546875
861.760741	0.186158	149.511719	235.546875
861.762744	0.185586	2.041441	0.653674
862.802788	0.187175	478.906250	-50.000000
862.804787	0.186841	2.055248	0.674920
863.836798	0.185863	151.171875	232.128906
863.838801	0.185336	2.038693	0.784768
864.876821	0.185362	478.125000	-50.585937
864.878823	0.184982	2.034803	0.759241
865.912855	0.183819	150.781250	232.812500
865.914857	0.186044	2.046484	0.640851
866.948908	0.186135	478.808594	-50.000000
866.950910	0.185547	2.041015	0.688433
867.990875	0.187914	148.437500	239.355469
867.992876	0.187324	2.060566	0.641814
869.024894	0.187408	476.171875	-51.074219
869.026897	0.187002	2.057021	0.682251
870.069417	0.185899	154.785156	224.707031
870.071416	0.185444	2.039881	0.638761
871.097987	0.187310	475.292969	-51.367187
871.099990	0.186761	2.054371	0.686887
872.144618	0.186471	149.316406	237.011719
872.146622	0.185817	2.043984	0.635246
873.173091	0.187454	475.488281	-51.171875
873.175093	0.187032	2.057348	0.684382
874.221126	0.185969	149.316406	235.058594
874.225125	0.185141	2.036549	0.646097
875.247158	0.187484	475.097656	-50.878906
875.249160	0.186821	2.055027	0.685865
876.297176	0.187248	157.910156	214.550781
876.299180	0.186698	2.053679	0.648326
877.321712	0.185330	473.242187	-53.125000
877.323711	0.186178	2.047955	0.681777
878.373772	0.186616	153.808594	221.484375
878.375774	0.186195	2.048141	0.648054
879.399831	0.186668	470.312500	-55.371094
879.401832	0.186064	2.046705	0.671470
880.445890	0.186603	158.496094	209.375000
880.447891	0.185944	2.045384	0.652266
881.476426	0.186393	471.777344	-55.175781
881.478427	0.187113	2.058244	0.671829
